timestamp,gyro_x,gyro_y,gyro_z,acc_x,acc_y,acc_z
2025-09-30T12:52:32.752514,-4.587786,5.183206,2.854962,0.011853,-0.00111,0.061404
2025-09-30T12:52:32.944885,-5.78626,-10.625955,52.488548,-0.041676,-0.000135,0.08373
2025-09-30T12:52:33.152724,49.175571,8.045801,45.541985,-0.052771,0.017969,0.160018
2025-09-30T12:52:33.346784,54.717556,12.78626,-62.282444,0.0397,0.023571,0.146406
2025-09-30T12:52:33.556543,-29.229008,-2.503817,-76.587784,0.027712,0.013098,0.066464
2025-09-30T12:52:33.752026,-71.633591,-19.610687,23.175573,-0.017536,-0.009499,0.062053
2025-09-30T12:52:34.810133,-17.67939,-3.206107,16.290077,-0.008362,-0.002814,0.070037
2025-09-30T12:52:35.011734,37.213741,-14.816793,50.175571,-0.046195,0.017861,0.118478
2025-09-30T12:52:35.211458,36.931297,33.664124,-13.732824,-0.001678,0.028415,0.162887
2025-09-30T12:52:35.411749,1.236641,-27.091602,-102.96183,0.050687,0.018592,0.096963
2025-09-30T12:52:35.614348,-57.778625,-1.89313,-22.587786,0.007902,-0.005981,0.067412
2025-09-30T12:52:36.967620,2.946565,-8.885496,46.572517,-0.039051,0.010798,0.092633
2025-09-30T12:52:37.166980,85.801529,22.801527,20.580153,-0.047061,0.027062,0.153821
2025-09-30T12:52:37.359163,46.404579,-7.015267,-79.206108,0.047521,0.030688,0.136691
2025-09-30T12:52:37.572797,-48.824429,-4.137404,-80.28244,0.034288,0.010067,0.063082
2025-09-30T12:52:38.924229,1.679389,-9.053435,-3.274809,0.016833,-0.007415,0.063352
2025-09-30T12:52:39.118730,-10.267176,-15.587787,51.519085,-0.020459,-0.001191,0.077533
2025-09-30T12:52:39.325769,68.389313,-20.396946,49.435116,-0.042758,0.021893,0.12684
2025-09-30T12:52:39.526207,58.114502,35.145039,-48.938931,0.019891,0.036155,0.159341
2025-09-30T12:52:39.726614,-14.679389,-48.61832,-87.870232,0.05269,0.021514,0.081403
2025-09-30T12:52:40.980844,12.137404,4.717557,-7.244275,0.025736,-0.007226,0.07166
2025-09-30T12:52:41.174712,-26.32061,-12.458015,42.908398,-0.020161,0.010717,0.068332
2025-09-30T12:52:41.371279,47.9771,10.236641,51.183205,-0.049659,0.010906,0.139749
2025-09-30T12:52:41.577999,30.38168,22.633587,-49.923664,0.020811,0.024735,0.161182
2025-09-30T12:52:41.771938,-14.992367,-17.580153,-91.664124,0.049984,0.013287,0.067249
2025-09-30T12:52:42.933413,-3.251908,-2.396947,-12.045801,0.040025,-0.004628,0.058671
2025-09-30T12:52:43.128065,-28.732824,-10.21374,45.442749,-0.02533,0.010094,0.073095
2025-09-30T12:52:43.321841,97.923668,5.267176,52.435116,-0.051283,0.024383,0.139965
2025-09-30T12:52:43.530526,26.80916,26.519083,-46.687023,0.02303,0.019647,0.150222
2025-09-30T12:52:43.725057,-51.167938,-18.541985,-89.534348,0.050335,0.013315,0.076992
2025-09-30T12:52:44.888026,-5.206107,-20.198473,7.152672,0.010771,-0.00663,0.045302
2025-09-30T12:52:45.096967,30.786259,-11.679389,54.419846,-0.049361,0.012367,0.093391
2025-09-30T12:52:45.290079,68.938934,32.625954,22.61832,-0.04108,0.019268,0.149761
2025-09-30T12:52:45.498710,23.236641,-12.526717,-71.053436,0.047034,0.023706,0.141832
2025-09-30T12:52:45.692450,-54.503819,-25.442749,-83.290077,0.043678,0.009499,0.066437
2025-09-30T12:52:46.745251,-20.366413,-25.198473,15.229008,-0.005683,-0.004601,0.046601
2025-09-30T12:52:46.950687,69.32061,-8.877863,60.412212,-0.049226,0.008579,0.106868
2025-09-30T12:52:47.147937,45.755726,34.267174,-2.51145,-0.01713,0.025384,0.170626
2025-09-30T12:52:47.354083,41.801525,-29.221375,-94.984734,0.066302,0.021081,0.120589
2025-09-30T12:52:47.547585,-73.755722,-0.793893,-55.572517,0.012016,-0.002057,0.050281
2025-09-30T12:52:48.695097,-8.885496,-11.061069,18.900763,-0.018105,-0.005115,0.048766
2025-09-30T12:52:48.904588,53.259541,10.335877,50.328243,-0.048522,0.012476,0.109141
2025-09-30T12:52:49.097952,56.854961,44.519085,-6.793893,-0.024193,0.028145,0.15899
2025-09-30T12:52:49.307464,19.19084,-23.687023,-95.534348,0.064191,0.02257,0.127002
2025-09-30T12:52:49.508661,-64.587784,-21.160305,-59,0.023706,0.006982,0.053908
2025-09-30T12:52:50.763215,-3.564885,-12.931297,13.847328,-0.005006,-0.000866,0.050552
2025-09-30T12:52:50.960371,61.068703,-8.312977,54.877861,-0.061106,0.013477,0.106327
2025-09-30T12:52:51.165563,58.748093,51.488548,1.641221,-0.038103,0.022516,0.162643
2025-09-30T12:52:51.359935,18.351145,-9.931297,-92.175575,0.053826,0.026142,0.13301
2025-09-30T12:52:51.553682,-61.29771,-15.61832,-59.900764,0.025628,0.008119,0.053258
2025-09-30T12:52:52.819660,1.557252,-11.396947,0.51145,0.019728,-0.006224,0.048333
2025-09-30T12:52:53.015214,26.648855,-17.557251,52.801525,-0.049632,0.016968,0.091849
2025-09-30T12:52:53.213566,49.687023,27.633587,9.236641,-0.044869,0.016751,0.15033
2025-09-30T12:52:53.418427,29.633587,23.862595,-64.335876,0.040864,0.022083,0.159423
2025-09-30T12:52:53.613772,-40.770992,-10.236641,-77.694656,0.047088,0.020892,0.073095
2025-09-30T12:52:53.821019,-57.29771,-40.572517,26.015266,-0.036236,-0.023328,0.059104
2025-09-30T12:52:54.873275,-8.091603,7.564886,-10.152672,0.040593,-0.012259,0.072229
2025-09-30T12:52:55.064424,-26.641222,-5.961832,25.030535,-0.026683,0.010473,0.071417
2025-09-30T12:52:55.272880,40.083969,-26.496183,42.862595,-0.058454,0.019864,0.132144
2025-09-30T12:52:55.466628,40.541985,62.221375,-18.274809,5.40E-05,0.021027,0.175849
2025-09-30T12:52:55.675426,3.51145,-21.503817,-103.404579,0.077398,0.031311,0.100563
2025-09-30T12:52:55.883502,-72.526718,-25.076336,-20.083969,-0.018077,-0.015994,0.026521
2025-09-30T12:52:56.935805,9.687023,0.374046,1.603053,0.021217,-0.017509,0.066952
2025-09-30T12:52:57.130266,-10.587787,-31.335878,32.152672,-0.008822,-0.000108,0.067087
2025-09-30T12:52:57.325324,52.412212,-3.740458,35.801525,-0.051905,0.012178,0.12389
2025-09-30T12:52:57.533322,56.572517,60.549618,-19.900763,-0.015777,0.022326,0.159856
2025-09-30T12:52:57.727925,1.229008,-34.038166,-102.969467,0.062946,0.021839,0.1191
2025-09-30T12:52:57.937242,-28.885496,-13.763359,-45.786259,0.021163,0.003275,0.050011
2025-09-30T12:52:58.130867,-80.916031,-36.267174,54.717556,-0.044192,-0.026061,0.092742
2025-09-30T12:52:59.181199,9.709924,7.954198,-7.625954,0.026683,-0.022543,0.071687
2025-09-30T12:52:59.391118,-22.603054,-8.122137,21.007633,-0.010527,-0.000595,0.067033
2025-09-30T12:52:59.585197,48.534351,-14.572519,44.305344,-0.055504,0.005467,0.13071
2025-09-30T12:52:59.792535,42.183205,37.259541,-11.984733,-0.017753,0.013937,0.16765
2025-09-30T12:52:59.987056,10.427481,-18.725191,-100.71756,0.072066,0.014992,0.10492
2025-09-30T12:53:00.194960,-48.580154,-11.083969,-35.267174,0.012124,-0.009824,0.040431
2025-09-30T12:53:01.245983,-3.870229,-11.526717,16.595419,0.008227,0.000271,0.051607
2025-09-30T12:53:01.438774,14.251908,-11.557252,50.137405,-0.038509,0.005277,0.10224
2025-09-30T12:53:01.647568,49.259541,38.488548,11.656488,-0.037102,0.019891,0.163753
2025-09-30T12:53:01.841196,45.137405,-28.786259,-90.801529,0.068575,0.024843,0.135879
2025-09-30T12:53:02.050702,-63.717556,-2.40458,-58.595421,0.025925,0.008525,0.047521
2025-09-30T12:53:03.198693,3.618321,-4.534351,6.374046,0.011826,-0.008335,0.056343
2025-09-30T12:53:03.397042,-9.442748,-14.969465,45.114502,-0.031906,0.004492,0.101618
2025-09-30T12:53:03.602878,27.557251,26.832062,25.519083,-0.042731,0.00571,0.143808
2025-09-30T12:53:03.796650,34.282444,12.900764,-66.435112,0.032907,0.011853,0.15853
2025-09-30T12:53:04.006308,-20.770992,8.954199,-89.076332,0.051066,0.007821,0.076017
2025-09-30T12:53:04.199362,-62.519085,-20.839695,19.48855,-0.021352,-0.012584,0.045843
2025-09-30T12:53:05.250953,-3.343511,5.045802,-1.076336,0.019404,-0.014072,0.067276
2025-09-30T12:53:05.460770,5.969466,-22.664122,36.541985,-0.02782,0.003139,0.076829
2025-09-30T12:53:05.657028,42.396946,-6.335878,24.022902,-0.045248,0.017699,0.14305
2025-09-30T12:53:05.862058,63.244274,13.938931,-52.984734,0.025574,0.021568,0.157637
2025-09-30T12:53:06.056084,-19.824427,-16.045801,-94.366409,0.070226,0.019945,0.086084
2025-09-30T12:53:06.250687,-51.862595,-31.022902,12.511451,-0.038888,-0.02073,0.052825
2025-09-30T12:53:07.415608,-12.274809,0.259542,-10.526717,0.027252,-0.013964,0.088493
2025-09-30T12:53:07.619435,-5.480916,-9.282443,21.19084,-0.007902,-0.003924,0.069171
2025-09-30T12:53:07.820054,78.847328,-52.152672,48.137405,-0.046493,0.011583,0.127327
2025-09-30T12:53:08.031543,34.549618,42.725189,-22.274809,-0.008741,0.028902,0.16765
2025-09-30T12:53:08.225605,0.687023,-14.847328,-97.290077,0.066167,0.017401,0.106489
2025-09-30T12:53:08.420350,-56.854961,-22.816793,-39.473282,0.018159,-0.002354,0.047737
2025-09-30T12:53:09.667214,1.473282,-20.274809,12.969465,-0.000135,-0.003599,0.056912
2025-09-30T12:53:09.878204,43.992367,9.412213,56.244274,-0.042271,0.008714,0.114581
2025-09-30T12:53:10.070572,58.725189,40.961834,-16.549618,-0.016237,0.021596,0.15374
2025-09-30T12:53:10.277056,26.541985,-10.320611,-88.419846,0.056316,0.024383,0.128382
2025-09-30T12:53:10.466833,-52.122139,-27.786259,-66.251907,0.03307,0.008795,0.058183
2025-09-30T12:53:10.673483,-63.351147,-26.541985,36.694656,-0.024166,-0.015777,0.084677
2025-09-30T12:53:11.822891,0.19084,-11.297709,15.274809,0.011474,-0.01207,0.040783
2025-09-30T12:53:12.034606,18.610687,13.511451,52.030533,-0.04246,0.008497,0.094447
2025-09-30T12:53:12.229696,80.984734,3.503817,19.816793,-0.039456,0.015885,0.167622
2025-09-30T12:53:12.422980,31.862595,-40.801525,-87.625954,0.068765,0.012097,0.129465
2025-09-30T12:53:12.633119,-73.389313,15.59542,-63.511452,0.020107,-0.001705,0.051905
2025-09-30T12:53:13.785199,7.519084,5.870229,-9.778625,0.025574,-0.01805,0.055234
2025-09-30T12:53:13.978932,-9.709924,-11.419847,44.167938,-0.023246,0.004546,0.079129
2025-09-30T12:53:14.191295,42.572517,-19.465649,37.190838,-0.043083,0.024302,0.148057
2025-09-30T12:53:14.385552,58.213741,25.351145,-41.839695,0.007009,0.030986,0.159747
2025-09-30T12:53:14.591578,-16.877863,-8.351145,-96.885498,0.052311,0.018456,0.102755
2025-09-30T12:53:14.797327,-59.038166,-24.67939,-27.770992,0.008335,-0.004195,0.050904
2025-09-30T12:53:15.750261,-6.198473,-7.59542,13.931297,-0.005142,-0.011664,0.055423
2025-09-30T12:53:15.950913,36.267174,4.458015,55.854961,-0.029795,0.000216,0.092417
2025-09-30T12:53:16.144162,69.870232,12.236641,26.022902,-0.036317,0.033124,0.14922
2025-09-30T12:53:16.341165,47.526718,2.282443,-59.099236,0.025059,0.029741,0.151954
2025-09-30T12:53:16.546672,-32.396946,-16.954199,-99.39695,0.054828,0.018916,0.086842
2025-09-30T12:53:16.745387,-62.038166,-29.305344,-6.305344,-0.012421,-0.013775,0.058833
2025-09-30T12:53:17.696029,-5.305344,-7.183206,11.549619,-0.003816,-0.019133,0.045194
2025-09-30T12:53:17.897113,20.366413,-11.603053,54.061069,-0.035424,0.010662,0.096936
2025-09-30T12:53:18.103238,50.763359,29.045801,5.251908,-0.041676,0.034017,0.158151
2025-09-30T12:53:18.298551,48.106869,-5.068702,-61.61832,0.041676,0.028956,0.151899
2025-09-30T12:53:18.505006,-41.961834,-19.48855,-90.877861,0.049524,0.019674,0.079319
2025-09-30T12:53:18.701314,-64.96183,-10.610687,14.839695,-0.032258,-0.022867,0.060592
2025-09-30T12:53:19.762553,-24.274809,-1.587786,20.862595,-0.011177,0.00414,0.068278
2025-09-30T12:53:19.961068,75.35878,-13.206107,45.916031,-0.054557,0.026034,0.125
2025-09-30T12:53:20.150922,58.572517,66.938934,-11.854961,-0.015317,0.036047,0.151142
2025-09-30T12:53:20.361279,18.061069,-21.229008,-98.435112,0.056018,0.032962,0.130006
2025-09-30T12:53:20.556229,-66.251907,-35.61832,-56.694656,0.025195,0.006441,0.057317
2025-09-30T12:53:20.765531,-85.145035,-11.488549,44.38168,-0.040647,-0.036155,0.066113
2025-09-30T12:53:21.720554,-17.068703,-16.61832,15.977099,0.002517,-0.010446,0.059212
2025-09-30T12:53:21.917838,73.709923,-16.656488,55.305344,-0.04882,0.005412,0.105732
2025-09-30T12:53:22.116969,67.534348,50.908398,6.641222,-0.041161,0.031311,0.151683
2025-09-30T12:53:22.322712,48.717556,-0.412214,-81.748093,0.038969,0.034396,0.154524
2025-09-30T12:53:22.518440,-37.67939,-53.29771,-97.015266,0.049848,0.024545,0.071146
2025-09-30T12:53:22.719283,-75.519081,-24.839695,26.885496,-0.022624,-0.029416,0.064354
2025-09-30T12:53:23.476774,4.427481,-4.206107,-3.061069,0.025141,-0.018402,0.06116
2025-09-30T12:53:23.677130,-15.503817,-16.221375,46.389313,-0.02211,0.005088,0.08124
2025-09-30T12:53:23.870732,60.129772,-1.816794,40.801525,-0.05296,0.02395,0.134444
2025-09-30T12:53:24.064039,66.954201,23.534351,-35.412212,-0.008606,0.036263,0.161831
2025-09-30T12:53:24.272292,8.007633,-48.709923,-105.03817,0.055531,0.026142,0.109277
2025-09-30T12:53:24.465439,-58.503819,-30.435114,-33.267174,0.022624,-0.005872,0.052744
2025-09-30T12:53:25.329831,0.022901,-3.549618,4.427481,0.012205,-0.019755,0.064678
2025-09-30T12:53:25.534343,7.175572,-48.083969,53.015266,-0.016129,0.003599,0.071714
2025-09-30T12:53:25.730523,66.541985,10.984733,30.099237,-0.054043,0.022489,0.120589
2025-09-30T12:53:25.931340,51.412212,78.106873,-19.541985,0.001976,0.036182,0.170464
2025-09-30T12:53:26.133977,-0.312977,-69.419846,-122.809158,0.065734,0.026548,0.092444
2025-09-30T12:53:26.332678,-59.580154,-27.030535,-13.145039,0.015994,-0.014532,0.046574
2025-09-30T12:53:27.283755,6.08397,-10.106871,13.541985,-0.000108,-0.016697,0.042352
2025-09-30T12:53:27.490337,53.274811,-6.824428,60.938931,-0.039294,0.019809,0.114527
2025-09-30T12:53:27.687991,42.824429,61.473282,13.053435,-0.035072,0.02736,0.146189
2025-09-30T12:53:27.882439,29.931297,-12.442748,-81.007637,0.038158,0.025141,0.148138
2025-09-30T12:53:28.090414,-39.511452,-29.137405,-86.671753,0.047927,0.013937,0.073609
2025-09-30T12:53:28.291192,-79.03817,-29.152672,15.236641,-0.025628,-0.027143,0.072012
2025-09-30T12:53:29.143373,-16.106871,-22.847328,20.007633,-0.018132,-0.001624,0.056641
2025-09-30T12:53:29.330769,73.770996,-8.297709,68.786263,-0.059158,0.018916,0.130818
2025-09-30T12:53:29.541719,55.389313,46.007633,-20.938931,-0.01234,0.032339,0.155336
2025-09-30T12:53:29.735422,2.381679,-30.404581,-99.847328,0.056154,0.023733,0.122321
2025-09-30T12:53:29.949061,-62.32061,-40.664124,-51.068703,0.030445,0.001867,0.058616
2025-09-30T12:53:30.149611,-69.725189,-20.29771,59.67939,-0.025655,-0.024464,0.088872
2025-09-30T12:53:30.896552,-3.465649,-3.709924,3.045802,-0.008741,-0.021352,0.046926
2025-09-30T12:53:31.103630,39.450382,-10.290076,54.900764,-0.031663,0.012909,0.095123
2025-09-30T12:53:31.296952,34.206108,60.137405,5.175572,-0.035424,0.02598,0.152928
2025-09-30T12:53:31.490747,57.312977,-37.534351,-65.984734,0.027847,0.020351,0.136041
2025-09-30T12:53:31.700908,-35.35878,-24.946566,-82.076332,0.055261,0.013748,0.086382
2025-09-30T12:53:31.893141,-76.870232,-26.137405,-5.725191,0.007009,-0.015967,0.050904
2025-09-30T12:53:32.757285,-3.862595,2.137405,11.954199,-0.002598,-0.005412,0.046763
2025-09-30T12:53:32.946889,72.534348,-37.061069,61.625954,-0.049497,0.026115,0.113904
2025-09-30T12:53:33.157174,67.099236,64.183205,-7.961832,-0.03629,0.036669,0.148192
2025-09-30T12:53:33.351736,37.190838,-17.80916,-90.152672,0.052067,0.036886,0.146649
2025-09-30T12:53:33.544980,-62.648853,-43.70229,-76.061066,0.030472,0.018754,0.062243
2025-09-30T12:53:33.754952,-104,-23.755726,44.053436,-0.036128,-0.030661,0.064705
2025-09-30T12:53:34.609527,-29.938931,-12.625955,18.885496,0.003708,0.003383,0.0525
2025-09-30T12:53:34.807695,71.35878,-4.022901,58.755726,-0.05775,0.022651,0.112172
2025-09-30T12:53:35.011793,89.068703,51.328243,2.908397,-0.04836,0.038563,0.156716
2025-09-30T12:53:35.205363,28.793894,-8.572519,-88.854965,0.051228,0.039213,0.137908
2025-09-30T12:53:35.416012,-38.435116,-54.167938,-88.076332,0.040755,0.032069,0.066221
2025-09-30T12:53:35.613232,-80.854965,-13.206107,38.145039,-0.040295,-0.030472,0.061756
2025-09-30T12:53:36.467053,-7.21374,-17.274809,27.114504,-0.016697,-0.008362,0.048847
2025-09-30T12:53:36.659798,60.137405,2.015267,78.213737,-0.035532,0.018565,0.108762
2025-09-30T12:53:36.869504,55.267174,43.580154,-8.458015,-0.03215,0.030282,0.149139
2025-09-30T12:53:37.064704,14.106871,-21.167938,-77.343513,0.045085,0.02828,0.13439
2025-09-30T12:53:37.257866,-38.351147,-23.19084,-90.725189,0.044707,0.01437,0.070064
2025-09-30T12:53:37.466661,-35.137405,-6.358778,21.091602,-0.023463,-0.021541,0.070253
2025-09-30T12:53:38.423537,-8.053435,-5.19084,13.839695,-0.008281,-0.01207,0.053069
2025-09-30T12:53:38.615590,44.778625,-13.106871,53.236641,-0.051228,0.012882,0.100076
2025-09-30T12:53:38.827651,65.984734,53.427483,-0.969466,-0.042948,0.031338,0.163834
2025-09-30T12:53:39.019273,44.213741,-13.160305,-85.984734,0.047196,0.040512,0.150357
2025-09-30T12:53:39.229393,-18.145039,-32.541985,-85.465652,0.033503,0.017996,0.064245
2025-09-30T12:53:39.420724,-87.793892,-18.740458,46.290077,-0.032069,-0.03012,0.067195
2025-09-30T12:53:40.374353,-13.198473,-9.610687,17.099237,0.005629,-0.009336,0.058319
2025-09-30T12:53:40.584437,70.702293,-33.389313,65.946564,-0.040485,0.013829,0.093039
2025-09-30T12:53:40.777837,52.65649,71.832062,0.992366,-0.029227,0.041892,0.161128
2025-09-30T12:53:40.987870,31.106871,-1.78626,-95.419846,0.057317,0.041865,0.137529
2025-09-30T12:53:41.183323,-50.633587,-26.824427,-84.732826,0.03786,0.017915,0.068656
2025-09-30T12:53:41.377193,-76.488548,-22.687023,48.175571,-0.03031,-0.030445,0.067818
2025-09-30T12:53:42.236666,-17.015266,-7.572519,13.763359,-0.005223,-0.011583,0.048008
2025-09-30T12:53:42.441642,46.503819,-24.442749,55.832062,-0.043759,0.025925,0.114175
2025-09-30T12:53:42.634507,71.549622,60.717556,-11.641221,-0.027793,0.03629,0.15991
2025-09-30T12:53:42.844092,25.946566,-20.885496,-99.908394,0.060592,0.042948,0.125893
2025-09-30T12:53:43.038771,-64.67939,-34.190838,-81.213737,0.03196,0.010392,0.05296
2025-09-30T12:53:43.232897,-85.160309,-1.549618,46.229008,-0.027928,-0.022137,0.084596
2025-09-30T12:53:43.993330,9.541985,5.885496,3.70229,0.015128,-0.018998,0.054747
2025-09-30T12:53:44.187736,-3.038168,-35.832062,47.229008,-0.026656,0.004546,0.067682
2025-09-30T12:53:44.397658,53.816795,-6.496183,32.809162,-0.046222,0.039105,0.137394
2025-09-30T12:53:44.589218,89.32061,35.946564,-41.450382,0.009878,0.047386,0.16332
2025-09-30T12:53:44.799011,-22.503817,-47.450382,-110.664124,0.065409,0.03334,0.094798
2025-09-30T12:53:44.993986,-72.465652,-21.106871,-17.687023,0.012719,-0.007009,0.052149
2025-09-30T12:53:45.202889,-59.832062,-19.70229,47.931297,-0.023869,-0.030715,0.092661
2025-09-30T12:53:45.955734,17.458015,0.687023,-1.870229,0.02552,-0.016102,0.053285
2025-09-30T12:53:46.155855,-4.076336,-28.625954,44.625954,-0.039592,-0.002381,0.075178
2025-09-30T12:53:46.357591,60.007633,-2.564885,47.259541,-0.048279,0.02238,0.152305
2025-09-30T12:53:46.554991,68.541985,31.419847,-49.541985,0.006441,0.037292,0.162616
2025-09-30T12:53:46.755546,-7.458015,-18.580153,-105.213737,0.061783,0.026764,0.097586
2025-09-30T12:53:46.955308,-62.488548,-22.801527,-31.786259,0.016616,-0.007956,0.053854
2025-09-30T12:53:47.808072,8.099236,3.473282,-11.068703,0.023517,-0.013044,0.058752
2025-09-30T12:53:48.013646,-29.229008,-7.412214,46.236641,-0.033449,0.005629,0.071092
2025-09-30T12:53:48.215174,79.167938,-27.244274,40.167938,-0.048062,0.024708,0.137989
2025-09-30T12:53:48.415121,59.549618,24.80916,-66.931297,0.003383,0.039132,0.153388
2025-09-30T12:53:48.612877,-17.572519,-23.473282,-109.984734,0.05472,0.030661,0.102511
2025-09-30T12:53:48.807485,-64.137405,-21.473282,-25.732824,0.011474,-0.004979,0.059266
2025-09-30T12:53:49.002616,-91,-23.083969,59.687023,-0.027143,-0.018971,0.087329
2025-09-30T12:53:49.763674,-0.389313,-3.541985,-0.541985,0.018077,-0.017157,0.043029
2025-09-30T12:53:49.967443,10.198473,-20.664122,52.816795,-0.044084,0.021271,0.09193
2025-09-30T12:53:50.166655,69.290077,24.450382,12.580153,-0.044652,0.039105,0.168894
2025-09-30T12:53:50.360879,56.625954,-32.099236,-79.564888,0.033205,0.035154,0.148273
2025-09-30T12:53:50.573512,-44.946564,-19.519083,-94.671753,0.045383,0.022191,0.080645
2025-09-30T12:53:50.769204,-60.221375,-17.480917,-2.038168,0.005872,-0.005169,0.06522
2025-09-30T12:53:51.720009,-7.251908,-14.969465,8.40458,0.009932,-0.015723,0.040647
2025-09-30T12:53:51.914417,20.938931,-11.343512,44.221375,-0.031148,0.009661,0.098668
2025-09-30T12:53:52.124063,99.183205,25.832062,19.206106,-0.055315,0.029931,0.152874
2025-09-30T12:53:52.320252,54,6.351145,-52.290077,0.019836,0.043272,0.159612
2025-09-30T12:53:52.526469,-16.038168,-35.335876,-116.259544,0.058914,0.026656,0.076044
2025-09-30T12:53:52.719463,-56.35878,-7.198473,-18.832062,0.008714,-0.007063,0.055044
2025-09-30T12:53:52.929556,-31.19084,-31.282442,54.793892,-0.033286,-0.022651,0.108979
2025-09-30T12:53:53.784615,-1.748092,8.641221,-2.80916,0.034261,-0.014505,0.088872
2025-09-30T12:53:53.978291,-39.770992,-13.106871,24.091602,-0.010987,0.001407,0.057101
2025-09-30T12:53:54.172563,77.633591,-27.740458,62.183205,-0.055775,0.02441,0.122862
2025-09-30T12:53:54.384003,45.106869,47.137405,-8.61832,-0.03077,0.042948,0.160938
2025-09-30T12:53:54.590061,39.755726,-26.122137,-109.488548,0.049253,0.044301,0.120913
2025-09-30T12:53:54.785012,-54.129772,-29.992367,-81.816795,0.034937,0.009093,0.063515
2025-09-30T12:53:54.979276,-69.786263,-15.557252,41.938931,-0.013396,-0.01069,0.070605
2025-09-30T12:53:56.030491,-10.572519,-4.312977,6.923664,0.006495,-0.009634,0.057805
2025-09-30T12:53:56.239329,12.259542,-9.717557,36.893131,-0.043462,0.024599,0.102998
2025-09-30T12:53:56.440334,100.977097,25.068703,16.641222,-0.041378,0.03813,0.163211
2025-09-30T12:53:56.642972,49.770992,-10.725191,-74.198471,0.05085,0.04246,0.137042
2025-09-30T12:53:56.841639,-41.305344,-20.839695,-96.488548,0.045843,0.022218,0.064922
2025-09-30T12:53:57.042798,-74.60305,-16.145039,9.59542,-0.02165,-0.019512,0.060673
2025-09-30T12:53:57.984005,9.748092,-2.778626,0.160305,0.014451,-0.016237,0.058021
2025-09-30T12:53:58.194135,1.282443,-8.061069,38.664124,-0.022218,0.002787,0.090793
2025-09-30T12:53:58.389485,78.67939,-3.801527,30.87023,-0.05407,0.024626,0.144078
2025-09-30T12:53:58.598480,79.770996,6.473282,-52.045803,0.014343,0.043516,0.170951
2025-09-30T12:53:58.792784,-9.641221,-44.175571,-119.809158,0.062703,0.02874,0.076315
2025-09-30T12:53:59.001572,-69.557251,-14.427481,-2.89313,0.003735,-0.011393,0.05499
2025-09-30T12:53:59.937872,2.969466,1.541985,-0.938931,0.021866,-0.014586,0.050173
2025-09-30T12:54:00.145865,-6.793893,-28.877863,51.717556,-0.031338,0.018321,0.084136
2025-09-30T12:54:00.356175,79.534348,-3.854962,31.427481,-0.055261,0.034504,0.160451
2025-09-30T12:54:00.550454,80.839691,-16.007633,-60.068703,0.027387,0.045167,0.162832
2025-09-30T12:54:00.760881,-30.938931,-20.236641,-111.709923,0.057534,0.022895,0.066031
2025-09-30T12:54:00.954302,-60.198475,-17.259542,-10.137404,0.000649,-0.014451,0.064732
2025-09-30T12:54:01.907326,-5.671756,-20.839695,10.244275,-0.00111,-0.008985,0.049578
2025-09-30T12:54:02.105508,31.595419,-27.045801,64.366409,-0.050498,0.009553,0.09718
2025-09-30T12:54:02.308953,87.244278,26.32061,-5.267176,-0.039727,0.038401,0.171032
2025-09-30T12:54:02.502692,35.053436,-5.725191,-106.167938,0.061214,0.033259,0.129465
2025-09-30T12:54:02.712492,-63.038166,-17.961832,-77.618324,0.040918,0.00368,0.051093
2025-09-30T12:54:02.906920,-71.183205,-14.80916,30.938931,-0.018186,-0.01299,0.077776
2025-09-30T12:54:03.763921,-7.908397,-16.022902,-0.564885,0.012016,-0.007956,0.049848
2025-09-30T12:54:03.958267,39.671757,-27.099237,59.114502,-0.041216,0.01667,0.101185
2025-09-30T12:54:04.167874,81.847328,25.946566,26.633587,-0.041134,0.038807,0.14627
2025-09-30T12:54:04.370972,31.778625,-2.435115,-97.274811,0.031013,0.041432,0.161344
2025-09-30T12:54:04.570969,-44.251907,-53.145039,-107.839691,0.052338,0.0233,0.071823
2025-09-30T12:54:04.764606,-96.534348,-39.931297,1.48855,0.008173,-0.009418,0.054963
2025-09-30T12:54:05.718991,-15.80916,-17.427481,7.267176,0.008416,-0.015452,0.049902
2025-09-30T12:54:05.926510,53.183205,-19.465649,62.412212,-0.039186,0.019322,0.087248
2025-09-30T12:54:06.118598,78.587784,22.053434,4.78626,-0.050498,0.054692,0.167677
2025-09-30T12:54:06.327119,51.595421,-22.564886,-81.198471,0.045789,0.053935,0.160099
2025-09-30T12:54:06.524935,-27.015266,-50.198475,-112.35878,0.050768,0.026169,0.060051
2025-09-30T12:54:06.723749,-102.458015,-4.267176,24.122137,0.002679,-0.019052,0.062026
2025-09-30T12:54:07.575036,-5.29771,-10.427481,3.427481,0.013287,-0.017103,0.043759
2025-09-30T12:54:07.782531,-5.480916,-4.045802,57.053436,-0.034206,0.020865,0.087005
2025-09-30T12:54:07.978003,100.618324,-16.984734,35.870228,-0.052527,0.035938,0.16129
2025-09-30T12:54:08.171558,68.984734,25.015266,-55.282444,0.024762,0.046276,0.160099
2025-09-30T12:54:08.380505,-37.328243,-44.496181,-119.816795,0.060213,0.02395,0.082918
2025-09-30T12:54:08.580982,-90.832062,-17.572519,-15.38168,0.015398,-0.013315,0.055883
2025-09-30T12:54:09.534338,-3.038168,6.160306,-2.793893,0.034261,-0.019701,0.06641
2025-09-30T12:54:09.729638,-14.496183,-15.580153,37.916031,-0.022705,0.007144,0.064705
2025-09-30T12:54:09.939429,51.190838,-38.0229,70.96183,-0.06319,0.043245,0.14489
2025-09-30T12:54:10.141340,81.923668,48.328243,-35.572517,0.020702,0.047981,0.16083
2025-09-30T12:54:10.340767,-20.206106,-35.595421,-124.39695,0.060917,0.023328,0.090658
2025-09-30T12:54:10.536374,-56.282444,-6.442748,-43.625954,0.018971,0.001813,0.072175
2025-09-30T12:54:10.731545,-68.381676,-13.335877,49.183205,-0.032096,-0.028686,0.077993
2025-09-30T12:54:11.493898,4.160306,3.068702,-6.625954,0.02625,-0.029011,0.100211
2025-09-30T12:54:11.696638,-1.763359,-0.763359,9.641221,0.022516,-0.017239,0.056073
2025-09-30T12:54:11.897635,-16.885496,-18.022902,42.847328,-0.029308,0.013775,0.095529
2025-09-30T12:54:12.093408,107.839691,-35.503819,35.290077,-0.036967,0.028659,0.14849
2025-09-30T12:54:12.296301,48.030533,23.251909,-53.549618,0.022272,0.033611,0.167731
2025-09-30T12:54:12.494721,-41.160305,-6.564886,-120.648857,0.062053,0.024626,0.080428
2025-09-30T12:54:12.690047,-81.061066,1.007634,-17.748091,0.013315,-0.013342,0.054503
2025-09-30T12:54:13.651843,-2.068702,-0.351145,-10.603053,0.037616,-0.02376,0.101753
2025-09-30T12:54:13.840236,-14.007633,-9.610687,3.114504,0.009634,-0.012178,0.04292
2025-09-30T12:54:14.052153,12.610687,-22.267176,57.786259,-0.048279,0.03261,0.108817
2025-09-30T12:54:14.243200,86.343513,42.435116,25.099237,-0.024978,0.035938,0.15328
2025-09-30T12:54:14.453483,9.534351,-5.748092,-103.389313,0.043299,0.030959,0.141264
2025-09-30T12:54:14.647070,-64.190842,-18.015266,-102.328247,0.049821,0.008687,0.053393
2025-09-30T12:54:14.851274,-75.801529,-14.145039,16.687023,0.001894,-0.00893,0.06208
2025-09-30T12:54:45.871892,6.587786,-6.610687,-8.221375,0.02855,-0.012097,0.095367
2025-09-30T12:54:46.082158,-36.404579,-3.824427,13.748092,0.008876,-0.008687,0.06595
2025-09-30T12:54:46.271106,17.427481,-5.908397,59.65649,-0.04836,-0.00276,0.083026
2025-09-30T12:54:46.480296,30.473282,-1.396947,53.694656,-0.034504,0.013639,0.139234
2025-09-30T12:54:46.674533,49.633587,-9.076336,-55.572517,0.002354,0.015831,0.141589
2025-09-30T12:54:46.884472,15.305344,-7.954198,-92.045799,0.032853,0.016941,0.12454
2025-09-30T12:54:47.078386,-102.152672,25.587786,-22.610687,0.015777,-0.001976,0.048901
2025-09-30T12:54:48.324843,-3.251908,1.305344,7.305344,0.016616,-0.011934,0.075043
2025-09-30T12:54:48.535656,-18.503817,-14.984733,46.67939,-0.045194,-0.015534,0.062811
2025-09-30T12:54:48.727946,67.213737,-5.465649,68.67939,-0.04154,-0.011285,0.110873
2025-09-30T12:54:48.943479,86.740456,-16.038168,-36.435116,-0.028929,0.013287,0.126515
2025-09-30T12:54:49.143365,34.038166,-18.916031,-100.35878,0.01234,0.022083,0.147461
2025-09-30T12:54:49.339462,-7.832061,-15.015267,-70.725189,0.028848,0.015047,0.109331
2025-09-30T12:54:49.533628,-68.992363,8.015267,-6.465649,0.003789,-0.014316,0.074204
2025-09-30T12:54:49.727926,-57.732826,-40.740459,47.282444,-0.031879,-0.027901,0.076613
2025-09-30T12:54:50.599186,-0.343511,11.282443,-5.763359,0.02395,-0.020107,0.086139
2025-09-30T12:54:50.792528,-10.511451,-14.633588,45.877861,-0.01548,-0.011285,0.0666
2025-09-30T12:54:50.986171,36.534351,-2.19084,69.458015,-0.049659,-0.001461,0.081457
2025-09-30T12:54:51.194741,65.725189,-23.70229,12.893129,-0.032285,0.029227,0.138558
2025-09-30T12:54:51.394465,60.122139,-12.343512,-107.297707,0.02395,0.037616,0.160262
2025-09-30T12:54:51.600341,-25.900763,-30.755726,-85.511452,0.021027,0.019891,0.108898
2025-09-30T12:54:51.792236,-77.167938,-9.755725,-8.687023,0.016102,-0.009742,0.049497
2025-09-30T12:54:51.988620,-52.412212,-25.687023,52.65649,-0.040837,-0.029119,0.098181
2025-09-30T12:54:52.946006,9.610687,-9.114504,30.290077,0.001001,-0.009607,0.049686
2025-09-30T12:54:53.157018,63.770992,-3.816794,55.458015,-0.041134,0.03629,0.118667
2025-09-30T12:54:53.355172,95.870232,9.122137,-12.175572,-0.014235,0.043543,0.131982
2025-09-30T12:54:53.548107,11.671756,-1.679389,-122.67939,0.016156,0.035993,0.137908
2025-09-30T12:54:53.762210,-47.786259,-15.412213,-64.122139,0.020892,0.019052,0.100211
2025-09-30T12:54:53.952312,-109.816795,-19.793894,6.610687,0.020432,-0.012611,0.065869
2025-09-30T12:54:54.157847,9.21374,-12.61832,43.458015,-0.037129,-0.016183,0.098858
2025-09-30T12:54:55.112685,-52.755726,-21.465649,32.129772,0.01713,-0.019133,0.043922
2025-09-30T12:54:55.305514,76.160309,-37.213741,76.572517,-0.020973,-0.003383,0.090956
2025-09-30T12:54:55.499891,118.64122,-63.832062,58.511452,-0.012232,0.041919,0.129952
2025-09-30T12:54:55.715498,70.793892,32.587788,-118.618324,-0.011907,0.043759,0.15309
2025-09-30T12:54:55.901959,-64.770996,-3.931298,-125.030533,0.027279,0.008497,0.106814
2025-09-30T12:54:56.114534,-121.587784,-33.396946,-33.137405,0.013287,-0.022083,0.052663
2025-09-30T12:54:56.871489,2.114504,-6.030534,1.984733,0.027739,-0.024248,0.073798
2025-09-30T12:54:57.072227,29.48855,-80.618324,96.969467,0.010906,-0.008876,0.074908
2025-09-30T12:54:57.258880,85.290077,-20.854961,69.526718,-0.00111,0.026331,0.0922
2025-09-30T12:54:57.467061,147,-15.106871,-24.526718,-0.010392,0.061945,0.110549
2025-09-30T12:54:57.661865,46.908398,12.358779,-103.061066,-0.01234,0.075503,0.127787
2025-09-30T12:54:57.871390,-27.969465,24.465649,-176.381683,-0.002165,0.045112,0.127571
2025-09-30T12:54:58.070184,-139.137405,-29.312977,-45.725189,0.00368,-0.006468,0.0794
2025-09-30T12:54:59.121932,-17.465649,-40.961834,12.480916,0.037346,-0.01372,0.063948
2025-09-30T12:54:59.327521,60.65649,-23.427481,81.343513,-0.000785,0.01004,0.081727
2025-09-30T12:54:59.522755,114.610687,30.656488,44.778625,-0.033611,0.048306,0.12408
2025-09-30T12:54:59.717025,72.381676,12.633588,-75.832062,-0.025384,0.059591,0.117016
2025-09-30T12:54:59.926682,-14.137404,-18.633587,-156.015274,-0.023733,0.02809,0.134823
2025-09-30T12:55:00.125519,-60.717556,10.885496,-138,-0.005061,0.00341,0.096747
2025-09-30T12:55:00.330104,-127.068703,-85.076332,39.061069,0.002409,-0.030553,0.056316
2025-09-30T12:55:02.075431,-17.977098,1.526718,-7.61832,0.038266,-0.041188,0.051689
2025-09-30T12:55:02.285765,-0.679389,-88.954201,103.381676,-0.006441,-0.014695,0.058292
2025-09-30T12:55:02.478376,115.328247,-48.129772,105.648857,0.009742,0.040728,0.100779
2025-09-30T12:55:02.688680,152.312973,-44.763359,-24.374046,-0.003491,0.080753,0.115284
2025-09-30T12:55:02.881795,-1.89313,-34.732826,-182.320618,0.035505,0.072689,0.134553
2025-09-30T12:55:03.091387,-71.412216,-18.12977,-137.931305,0.020351,0.012449,0.100103
2025-09-30T12:55:03.285615,-148.595413,-14.435115,-24.183207,0.020919,-0.026088,0.066356
2025-09-30T12:55:04.142750,-12.847328,-5.977099,14.229008,0.031717,-0.044923,0.063677
2025-09-30T12:55:04.341611,52.793892,-83.442749,113.519081,-0.007929,0.002598,0.086057
2025-09-30T12:55:04.532512,159.343506,-28.38168,57.671757,-0.01667,0.061404,0.116394
2025-09-30T12:55:04.740058,74.267174,-6.839694,-103.916031,0.002084,0.063894,0.1214
2025-09-30T12:55:04.939972,21.19084,-37.404579,-136.893127,0.012746,0.0666,0.124864
2025-09-30T12:55:05.144125,-78.984734,-13.946565,-113.198471,0.020621,0.003031,0.1004
2025-09-30T12:55:05.336876,-124.488548,-2.076336,-6.687023,0.006766,-0.03123,0.064029
2025-09-30T12:55:06.288813,-23.564886,-28.877863,38.389313,0.000433,-0.022272,0.046953
2025-09-30T12:55:06.499172,92.022903,-32.572517,133.64122,-0.026088,0.032339,0.106895
2025-09-30T12:55:06.692418,135.71756,-34.061069,10.679389,-0.034071,0.056127,0.112199
2025-09-30T12:55:06.902576,44.992367,-12.709924,-138.740463,-0.003383,0.057317,0.136663
2025-09-30T12:55:07.097123,-22.572519,-27.480917,-153.954193,0.034342,0.019458,0.126948
2025-09-30T12:55:07.305455,-135,-22.213741,-43.9771,0.012178,-0.022001,0.05269
2025-09-30T12:55:08.354589,-39.603054,-39.969467,78.694656,-0.020026,-0.0397,0.057859
2025-09-30T12:55:08.553695,86.938934,-57.671757,86.519081,-0.02073,0.029849,0.118342
2025-09-30T12:55:08.759540,159.015274,-73.35878,-0.816794,-0.015236,0.066194,0.12592
2025-09-30T12:55:08.960019,24.832062,1.984733,-170.519089,0.03242,0.045167,0.149329
2025-09-30T12:55:09.161657,-73.809158,13.923664,-141.381683,0.020513,-0.016833,0.091605
2025-09-30T12:55:09.355324,-151.145035,-26.236641,13.78626,-0.010013,-0.028659,0.042027
2025-09-30T12:55:10.116355,-16.541985,-6.450382,9.839695,0.029958,-0.048847,0.048793
2025-09-30T12:55:10.308870,9.80916,-45.793892,113.236641,-0.012773,-0.0187,0.07645
2025-09-30T12:55:10.502865,126.206108,-68.541985,60.229008,-0.015534,0.031527,0.121184
2025-09-30T12:55:10.712999,125.709923,-25.549618,-65.03817,-0.000812,0.067385,0.133957
2025-09-30T12:55:10.907592,21.801527,26.587786,-182.160309,0.020811,0.03123,0.132875
2025-09-30T12:55:11.116905,-101.809158,8.427481,-109.374046,0.018159,-0.016454,0.084948
2025-09-30T12:55:12.158589,-27.992367,-73.244278,68.755722,0.018375,-0.027279,0.0607
2025-09-30T12:55:12.369605,101.847328,-57.312977,98.312981,-0.026737,0.050471,0.108032
2025-09-30T12:55:12.561706,163.167938,-35.374046,-58.34351,-0.003626,0.081213,0.11496
2025-09-30T12:55:12.777793,36.473282,-8.885496,-177.396942,0.029416,0.081078,0.144566
2025-09-30T12:55:12.965838,-119.412216,-19.229008,-108.832062,0.027901,-0.000731,0.070551
2025-09-30T12:55:14.019462,-24.366413,-32.809162,66.106873,-0.002869,-0.01759,0.056235
2025-09-30T12:55:14.225829,103.938934,-42.152672,147.404587,-0.03012,0.047792,0.093391
2025-09-30T12:55:14.418621,163.198471,-70.030533,-65.793892,-0.001543,0.101753,0.127516
2025-09-30T12:55:14.627758,26.51145,-32.251907,-155.091599,0.026007,0.076315,0.124702
2025-09-30T12:55:14.820370,-138.526718,-10.900764,-126.648857,0.013937,-0.000704,0.081538
2025-09-30T12:55:15.873054,-74.106873,-36.053436,79.381676,-0.004249,-0.00866,0.039998
2025-09-30T12:55:16.084546,125.328247,-68.351143,177.083969,-0.028172,0.042487,0.108627
2025-09-30T12:55:16.278359,139.503815,-25.061069,-55.145039,-0.013477,0.088249,0.141426
2025-09-30T12:55:16.486335,72.496185,-18.992367,-161.648849,0.022489,0.063217,0.13366
2025-09-30T12:55:16.682140,-77.259544,-11.648855,-126.992363,0.025168,0.000758,0.085408
2025-09-30T12:55:16.889550,-149.526718,-44.519085,36.755726,-0.018916,-0.032907,0.064976
2025-09-30T12:55:18.642605,-37.595421,16.87023,-48.0229,0.040593,-0.042569,0.091497
2025-09-30T12:55:18.832285,-30.236641,-19.374046,24.687023,-0.006278,-0.035208,0.06955
2025-09-30T12:55:19.042856,33.274811,-38.526718,103.190842,-0.051012,-0.010554,0.090983
2025-09-30T12:55:19.241369,137.809158,-12,28.793894,-0.013125,0.031473,0.140831
2025-09-30T12:55:19.446334,94.877861,-2.954198,-111.152672,0.007388,0.037319,0.155201
2025-09-30T12:55:19.645325,-76.312981,-21.213741,-110,0.043056,-0.001191,0.085516
2025-09-30T12:55:19.850011,-145.160309,-18.48855,26.633587,-0.049091,-0.041216,0.043435
2025-09-30T12:55:20.896581,-8.328244,13.687023,-9.778625,0.027576,-0.0456,0.065653
2025-09-30T12:55:21.090717,-19.801527,-19.427481,41.145039,-0.020269,-0.026007,0.053502
2025-09-30T12:55:21.298593,109.229004,-60.67939,89.35878,-0.060727,0.041892,0.123728
2025-09-30T12:55:21.490780,153.312973,0.816794,-39.335876,0.00912,0.068007,0.180179
2025-09-30T12:55:21.700147,-33.229008,-60.725189,-154.038162,0.059861,0.01759,0.113661
2025-09-30T12:55:21.903738,-159.458008,3.78626,-40.442749,0.007469,-0.025249,0.030607
2025-09-30T12:55:23.042776,-11.900764,-8.862596,-20.671755,0.03012,-0.045491,0.075097
2025-09-30T12:55:23.257046,-25.595419,-29.145039,69.725189,-0.011041,-0.028469,0.049524
2025-09-30T12:55:23.448258,40.931297,-10.114504,124.480919,-0.053583,-0.004249,0.064299
2025-09-30T12:55:23.658488,137.389313,12.923664,17.473282,-0.014884,0.102917,0.170004
2025-09-30T12:55:23.854339,81.725189,-13.099236,-179.603058,0.029525,0.056939,0.136258
2025-09-30T12:55:24.047153,-159.473282,0.10687,-120.893127,0.036371,-0.007632,0.088168
2025-09-30T12:55:24.257555,-140.297714,-29.687023,14.366412,-0.045843,-0.033395,0.042
2025-09-30T12:55:25.312118,-33.717556,-13,26.832062,0.003545,-0.043786,0.042569
2025-09-30T12:55:25.502961,17.045801,-66.39695,73.824425,-0.022705,0.01096,0.061647
2025-09-30T12:55:25.712279,232.725189,-61.755726,89.969467,-0.044138,0.077235,0.114878
2025-09-30T12:55:25.908726,109.954201,-45.984734,-79.160309,0.009228,0.098749,0.124513
2025-09-30T12:55:26.117869,-52,-28.099237,-197.458008,0.019891,0.042271,0.128437
2025-09-30T12:55:26.312478,-160.122131,-35.458015,-77.748093,0.015371,-0.004844,0.058698
2025-09-30T12:55:27.375209,-49.763359,-25.740458,9.732824,0.015804,-0.040025,0.0374
2025-09-30T12:55:27.573674,70.366409,-27.412214,110.183205,-0.041053,0.000866,0.071633
2025-09-30T12:55:27.768196,163.2061,-7.534351,25.847328,-0.047873,0.042677,0.149545
2025-09-30T12:55:27.962319,62.740459,5.274809,-140.427475,0.040187,0.050823,0.15466
2025-09-30T12:55:28.171939,-46.068703,-25.877863,-151.977097,0.050768,0.013666,0.09396
2025-09-30T12:55:28.367060,-141.343506,-43.091602,55.534351,-0.039917,-0.029552,0.027901
2025-09-30T12:55:29.220728,-12.045801,17.206106,9.671756,-0.014208,-0.013179,0.047088
2025-09-30T12:55:29.432399,40.198475,-27.687023,96.39695,-0.060781,-0.000649,0.081944
2025-09-30T12:55:29.626861,120.007637,-20.732824,41.328243,-0.051201,0.061052,0.140046
2025-09-30T12:55:29.820093,66.778625,-4.068702,-139.045807,0.026034,0.058616,0.142103
2025-09-30T12:55:30.029606,-57.793892,-2.557252,-140.763351,0.046006,0.020648,0.107951
2025-09-30T12:55:30.225466,-128.450378,-41.603054,17.053434,0.009878,-0.01207,0.042515
2025-09-30T12:55:31.277290,-16.404581,-20.839695,67.580154,-0.020567,-0.011095,0.048198
2025-09-30T12:55:31.488028,91.213737,-18.839695,75.900764,-0.048116,0.054747,0.120778
2025-09-30T12:55:31.681926,125.045799,-22.213741,-68.099236,0.009526,0.059753,0.161371
2025-09-30T12:55:31.890002,-36.236641,-4.221374,-147.725189,0.050741,0.016806,0.125243
2025-09-30T12:55:32.083947,-109.862595,-0.519084,-43.793892,0.008985,0.001624,0.05472
2025-09-30T12:55:32.941024,-9.870229,-50.480915,-0.870229,0.036101,-0.039511,0.062838
2025-09-30T12:55:33.135880,21.70229,-4.167939,64.297707,-0.030905,-0.014749,0.060917
2025-09-30T12:55:33.347756,98.824425,-0.641221,79.015266,-0.053285,0.014722,0.124188
2025-09-30T12:55:33.539640,157.259537,-6.427481,-76.190842,-0.000406,0.052094,0.164592
2025-09-30T12:55:33.738059,-55.068703,-4.282443,-125.748093,0.032312,0.001461,0.103296
2025-09-30T12:55:33.943286,-121.137405,-6.053435,-46.129772,0.012692,-0.017076,0.055856
2025-09-30T12:55:34.137253,-37.946564,-25.496183,83.793892,-0.029281,-0.054043,0.090333
2025-09-30T12:55:35.095355,-61.435116,-53.687023,41.603054,0.001894,-0.030959,0.048279
2025-09-30T12:55:35.302155,109.725189,-64.916031,92.213737,-0.029768,0.030499,0.096422
2025-09-30T12:55:35.496540,176.28244,23.564886,-60.717556,-0.010229,0.081051,0.160559
2025-09-30T12:55:35.690500,7.374046,86.435112,-178.351151,0.001272,0.040972,0.132144
2025-09-30T12:55:35.900400,-98.137405,0.381679,-134.656494,0.02211,-0.007523,0.093012
2025-09-30T12:55:36.104214,-155.343506,-74.900764,21.29771,-0.018375,-0.043218,0.041216
2025-09-30T12:55:36.949329,-25.137405,-77.267174,39.824429,0.027739,-0.03583,0.038942
2025-09-30T12:55:37.158300,80.015266,-37.65649,43.870228,0.006197,0.016237,0.100157
2025-09-30T12:55:37.353859,126.068703,16.12977,-23.053434,-0.006035,0.067357,0.136501
2025-09-30T12:55:37.560532,28.595419,20.419847,-121.083969,0.010365,0.053096,0.126245
2025-09-30T12:55:37.759028,-28.610687,20,-121.045799,0.025195,0.025763,0.121779
2025-09-30T12:55:37.958768,-154.740463,-21.732824,-23.328245,0.010906,-0.01667,0.046222
2025-09-30T12:55:39.117668,-45.694656,-10.793893,-4.572519,0.020648,-0.05223,0.050958
2025-09-30T12:55:39.311447,56.229008,-82.870232,57.694656,0.016156,-0.020865,0.052798
2025-09-30T12:55:39.508073,109.793892,-7.267176,51.450382,-0.020161,0.022407,0.132956
2025-09-30T12:55:39.715096,114.305344,7.61832,-86.03817,0.010446,0.053339,0.150357
2025-09-30T12:55:39.910435,28.633587,-4.961832,-108.419846,0.035965,0.03077,0.13485
2025-09-30T12:55:40.111324,-90.053436,12.045801,-67.076332,0.019268,-0.015398,0.082079
2025-09-30T12:55:41.063294,-20.732824,-23.328245,10.503817,0.028875,-0.058779,0.051553
2025-09-30T12:55:41.268570,-3.328244,-64.694656,59.366413,-0.001651,-0.025276,0.050823
2025-09-30T12:55:41.462677,160.030533,-55.167938,9.083969,0.006711,0.033909,0.118045
2025-09-30T12:55:41.672324,112.007637,45.175571,-103.480919,0.029579,0.067168,0.143564
2025-09-30T12:55:41.866986,-18.770992,44.068703,-145.519089,0.04514,0.043056,0.132171
2025-09-30T12:55:42.060490,-159.213745,6.366412,-69.938934,0.024572,-0.020134,0.060971
2025-09-30T12:55:42.270995,-102.061066,-72.618324,80.809158,-0.041243,-0.051147,0.059834
2025-09-30T12:55:43.125826,-18.961832,-90.778625,32.007633,0.036534,-0.027874,0.038618
2025-09-30T12:55:43.326761,113.557251,-63.061069,98.175575,-0.020134,0.035532,0.111306
2025-09-30T12:55:43.527507,163.687027,16.931297,-73.839691,-0.003139,0.078778,0.122835
2025-09-30T12:55:43.729295,53.412212,4.412214,-152.946564,0.005169,0.076829,0.123349
2025-09-30T12:55:43.928858,-52.091602,-16.832062,-143.213745,0.032718,0.032664,0.117774
2025-09-30T12:55:44.129678,-158.580154,-13.778625,-18.183207,0.008308,-0.026061,0.029849
2025-09-30T12:55:45.181434,4.175572,-96.900764,40.282444,0.007307,-0.012178,0.058725
2025-09-30T12:55:45.376129,146.2061,-26.32061,12.267176,-0.003383,0.057236,0.131143
2025-09-30T12:55:45.586354,119.297707,24.786259,-92.854965,0.00636,0.069279,0.141589
2025-09-30T12:55:45.784221,-36.38168,21.335878,-131.725189,0.022922,0.034369,0.12094
2025-09-30T12:55:45.991888,-137.893127,17.412214,-80.694656,0.018429,-0.008173,0.073852
2025-09-30T12:55:46.925913,-25.29771,-14.832061,5.007634,0.050985,-0.050579,0.04633
2025-09-30T12:55:47.141594,40.519085,-114.366409,37.396946,0.031608,-0.018213,0.064841
2025-09-30T12:55:47.342730,162.145035,-48.198475,-0.931298,0.023084,0.044301,0.117043
2025-09-30T12:55:47.542914,71.580154,61.450382,-118.946564,0.011934,0.065003,0.11569
2025-09-30T12:55:47.744096,37.770992,69.351143,-168.587784,0.013666,0.059158,0.133389
2025-09-30T12:55:47.944763,-143.549622,30.152672,-130.900757,0.032907,0.002733,0.089981
2025-09-30T12:55:49.085242,-53.801525,-11.664123,-9.78626,0.021244,-0.05886,0.04154
2025-09-30T12:55:49.295872,-24.366413,-84.908394,62.664124,0.011528,-0.031798,0.043922
2025-09-30T12:55:49.493782,168.92366,-108.381676,-3.412214,0.029011,0.037725,0.106165
2025-09-30T12:55:49.699668,116.916031,45.664124,-104.832062,0.023328,0.074421,0.140019
2025-09-30T12:55:49.893252,-18.832062,41.961834,-138.694656,0.026927,0.045221,0.137665
2025-09-30T12:55:50.100923,-110.541985,-11.664123,-81.099236,0.045112,0.000812,0.092228
2025-09-30T12:55:51.059659,-46.442749,-48.61832,5.824428,0.027279,-0.042163,0.036453
2025-09-30T12:55:51.253646,59.312977,-97.122139,69.793892,0.007307,-0.010554,0.075205
2025-09-30T12:55:51.459078,137.648849,-43.839695,33.38168,-0.009336,0.040972,0.126407
2025-09-30T12:55:51.659406,96.816795,-11.778625,-59.229008,0.002327,0.050931,0.129844
2025-09-30T12:55:51.860267,-14.717557,0.312977,-151.274811,0.039456,0.037697,0.125866
2025-09-30T12:55:52.055615,-75.992363,19.29771,-112.595421,0.037589,0.004628,0.088791
2025-09-30T12:55:52.250549,-149.015274,-32.435116,52.427483,-0.042271,-0.048712,0.054936
2025-09-30T12:55:53.108316,-38.038166,-60.908398,1.450382,0.030607,-0.033882,0.049821
2025-09-30T12:55:53.301812,110.64122,-94.175575,97.587784,-0.011204,0.016075,0.099128
2025-09-30T12:55:53.512331,178.152664,-9.572519,-4.854962,-0.00295,0.061864,0.129844
2025-09-30T12:55:53.709841,94.671753,18.48855,-137.908401,0.012963,0.076965,0.124458
2025-09-30T12:55:53.914120,-76.465652,-9.290076,-156.519089,0.028496,0.028009,0.116259
2025-09-30T12:55:54.108743,-168.083969,7.206107,-45.65649,0.007929,-0.023788,0.056397
2025-09-30T12:55:55.169419,-19.557251,-34.145039,15.312977,0.022813,-0.054422,0.041351
2025-09-30T12:55:55.355010,40.068703,-91.702293,120.145035,-0.002084,-0.013639,0.0748
2025-09-30T12:55:55.569681,195.412216,-88.954201,26.145039,0.008335,0.05656,0.104027
2025-09-30T12:55:55.757711,153.198471,-19.885496,-103.068703,0.002896,0.084677,0.125893
2025-09-30T12:55:55.967303,-12.129771,38.877861,-139.671753,0.014505,0.065653,0.136447
2025-09-30T12:55:56.160946,-108.267174,8.450381,-151.305344,0.023355,0.006305,0.086977
2025-09-30T12:55:56.376997,-187.404587,-28.366413,-16.053434,-0.023842,-0.043732,0.049172
2025-09-30T12:55:57.226265,-36.480915,-46.610687,18.267176,0.022786,-0.036507,0.036344
2025-09-30T12:55:57.421058,106.946564,-85.847328,42.709923,0.012936,0.003897,0.069685
2025-09-30T12:55:57.627209,160.618317,-2.534351,-12.778625,-0.005656,0.067114,0.115068
2025-09-30T12:55:57.826198,64.335876,43.068703,-132.816788,0.004276,0.085164,0.139694
2025-09-30T12:55:58.023491,-24.114504,-22.160305,-145.335876,0.034179,0.044111,0.120697
2025-09-30T12:55:58.228028,-150.740463,-19.244274,-48.122139,0.011664,-0.022624,0.074096
2025-09-30T12:55:58.422581,-105.694656,-39.305344,70.312981,-0.02238,-0.03786,0.055883
2025-09-30T12:55:59.186234,-8.335877,-25.770992,6.053435,0.035154,-0.037427,0.04606
2025-09-30T12:55:59.383459,46.404579,-68.091606,81.832062,0.001272,0.002733,0.078534
2025-09-30T12:55:59.574844,172.877869,-26.740458,44.190838,-0.021596,0.045112,0.138287
2025-09-30T12:55:59.789565,62.206108,49.244274,-83.793892,0.004438,0.060673,0.139776
2025-09-30T12:55:59.984668,-27.526718,6.496183,-159.458008,0.03878,0.038239,0.130683
2025-09-30T12:56:00.185869,-112.488548,-16.435114,-58.916031,0.01391,-0.014343,0.070578
2025-09-30T12:56:01.026213,-27.274809,18.335878,-22.694656,0.052988,-0.023192,0.064029
2025-09-30T12:56:01.239342,-12.038168,11.519084,86.480919,-0.024302,-0.003031,0.076071
2025-09-30T12:56:01.443842,135.687027,-63.648853,115.595421,-0.036182,0.044544,0.122726
2025-09-30T12:56:01.639565,119.167938,13.358779,-91.351143,-0.010148,0.076992,0.137881
2025-09-30T12:56:01.830749,-8.412213,5.816794,-246.687027,0.009039,0.023517,0.142779
2025-09-30T12:56:02.040533,-143.671753,-49.442749,-94.221375,0.02782,-0.008714,0.047223
2025-09-30T12:56:02.880332,-27.229008,25.87023,6.221374,0.002057,-0.016535,0.044328
2025-09-30T12:56:03.091150,16.625954,17.961832,86.511452,-0.02717,0.01732,0.073771
2025-09-30T12:56:03.299157,107.725189,-31.106871,77.274811,-0.039105,0.05361,0.114743
2025-09-30T12:56:03.493305,124.167938,-45.167938,-53.160305,-0.001191,0.075801,0.147326
2025-09-30T12:56:03.701936,-26.717558,-27.51145,-139.122131,0.030364,0.039402,0.145865
2025-09-30T12:56:03.895758,-94.39695,-2.160305,-103.557251,0.009769,-0.004817,0.041378
2025-09-30T12:56:04.103609,-60.694656,-47.480915,72.770996,-0.013477,-0.019864,0.084921
2025-09-30T12:56:04.846813,-16.076336,5.480916,1.10687,0.037508,0.008822,0.048549
2025-09-30T12:56:05.056635,8.473283,30.183207,44.175571,-0.054665,0.020026,0.087221
2025-09-30T12:56:05.253544,117.381676,-10.824428,135.931305,-0.058319,0.071823,0.109493
2025-09-30T12:56:05.443192,70.770996,-21.19084,-8.312977,-0.017266,0.072851,0.11404
2025-09-30T12:56:05.656330,14.633588,-13.748092,-110.931297,0.018159,0.063082,0.132469
2025-09-30T12:56:05.849666,-69.106873,-7.847328,-94.297707,0.021623,0.030824,0.08852
2025-09-30T12:56:06.057558,-120.755722,-33.755726,27.473282,-0.019728,-0.005412,0.048847
2025-09-30T12:56:06.994949,-18.839695,-1.671756,-12.114504,0.021568,8.10E-05,0.046493
2025-09-30T12:56:07.204046,29.816793,10.900764,83.450378,-0.039051,0.031987,0.080266
2025-09-30T12:56:07.412075,94.022903,3.900763,87.213737,-0.057209,0.061025,0.127977
2025-09-30T12:56:07.615742,54.526718,-26.450382,-77.251907,-0.007794,0.055369,0.11975
2025-09-30T12:56:07.817075,29.839695,-7.793893,-156.28244,0.028009,0.069252,0.150682
2025-09-30T12:56:08.010588,-85.442749,-35.145039,-50.251907,0.015912,0.022164,0.067439
2025-09-30T12:56:08.203634,-119.122139,-68.503815,51.274811,-0.008254,-0.027252,0.032123
2025-09-30T12:56:08.413946,11.030535,-7.007634,70.633591,-0.0292,-0.016887,0.127706
2025-09-30T12:56:27.213063,-0.335878,11.251908,-3.610687,0.030851,-0.024166,0.085597
2025-09-30T12:56:27.408501,-21.435114,-16.519083,23.984734,-0.011393,0.00636,0.043624
2025-09-30T12:56:27.600277,57.305344,-18.450382,76.748093,-0.05656,0.017266,0.110386
2025-09-30T12:56:27.811894,36.572517,13.236641,3.778626,-0.045843,0.038699,0.19206
2025-09-30T12:56:28.017473,31.106871,-43.610687,-117.35878,0.059401,0.042379,0.116286
2025-09-30T12:56:28.212699,-79.190842,-41.160305,-77.984734,0.044192,0.004573,0.033178
2025-09-30T12:56:29.154806,-24.335878,3.290076,15.900764,0.009012,-0.004573,0.043191
2025-09-30T12:56:29.364255,36.175571,-47.412212,57.213741,-0.054665,0.018943,0.114554
2025-09-30T12:56:29.557605,62.435116,41.847328,19.541985,-0.03169,0.035343,0.167487
2025-09-30T12:56:29.768269,21.19084,8.793893,-94.671753,0.06208,0.029092,0.146
2025-09-30T12:56:29.960770,-70.305344,-22.328245,-90.625954,0.03334,0.003518,0.045302
2025-09-30T12:56:30.815218,-3.59542,1.022901,2.709924,0.008606,-0.011691,0.045762
2025-09-30T12:56:31.024681,45.29771,-24.290077,45.122139,-0.038645,0.003356,0.100779
2025-09-30T12:56:31.213169,69.015266,29.793894,20.694656,-0.048333,0.034234,0.180504
2025-09-30T12:56:31.417553,54.9771,-7.946565,-85.312981,0.054395,0.031257,0.157582
2025-09-30T12:56:31.623420,-40.740459,-15.740458,-94.389313,0.049551,0.00682,0.052122
2025-09-30T12:56:31.813234,-69.763359,-0.526718,28.251909,-0.063271,-0.018862,0.070361
2025-09-30T12:56:32.669212,-3.694656,-3.816794,10.854961,-0.009066,-0.004655,0.038482
2025-09-30T12:56:32.874910,66.32061,-22.450382,50.213741,-0.05204,0.030337,0.137286
2025-09-30T12:56:33.082198,86.870232,23.053434,-5.687023,-0.028253,0.032799,0.157745
2025-09-30T12:56:33.273372,7.908397,-13.900764,-103.229004,0.070253,0.03104,0.116719
2025-09-30T12:56:33.479876,-59.374046,-27.175573,-69.60305,0.021947,-0.000649,0.044219
2025-09-30T12:56:34.335464,-0.053435,-7.717557,10.083969,0.003843,-0.005304,0.042487
2025-09-30T12:56:34.535916,49.274811,-27.122137,50.923664,-0.049118,0.026629,0.111009
2025-09-30T12:56:34.736222,86.458015,31.549618,8.427481,-0.023003,0.037752,0.150059
2025-09-30T12:56:34.936118,21.328245,4.122138,-94.557251,0.053448,0.032935,0.146081
2025-09-30T12:56:35.136509,-44.38168,-16.824427,-76.923668,0.034748,0.015344,0.05131
2025-09-30T12:56:35.336943,-68.67939,-21.038168,46.916031,-0.0525,-0.027549,0.087627
2025-09-30T12:56:36.079218,-10.030535,5.251908,32.984734,-0.029931,0.002977,0.067303
2025-09-30T12:56:36.285672,94.450378,-57.70229,60.213741,-0.048739,0.023679,0.135825
2025-09-30T12:56:36.491193,67.022903,-0.801527,-32.610687,-0.010365,0.037562,0.161073
2025-09-30T12:56:36.682579,7.641222,13.21374,-107.381676,0.063596,0.033476,0.09994
2025-09-30T12:56:36.890698,-69.885498,-12.580153,-50.541985,0.016318,-0.005006,0.05204
2025-09-30T12:56:37.096837,-61.030533,-32.34351,52.244274,-0.033773,-0.01916,0.104541
2025-09-30T12:56:37.844654,-14.717557,-1.969466,20.564886,-0.002598,-0.002192,0.029011
2025-09-30T12:56:38.041328,63.007633,-20.48855,64.763359,-0.041188,0.034017,0.132198
2025-09-30T12:56:38.242824,81.122139,38.396946,5.717557,-0.026981,0.037156,0.160424
2025-09-30T12:56:38.449045,-3.709924,-22.534351,-97.984734,0.055748,0.02736,0.148219
2025-09-30T12:56:38.642470,-72.916031,-3.534351,-81.099236,0.027089,-0.006008,0.052284
2025-09-30T12:56:39.606526,-14.183207,-1.801527,2.816794,0.004113,-0.016102,0.040458
2025-09-30T12:56:39.803139,13.839695,-16.290077,45.351147,-0.041513,0.014181,0.107328
2025-09-30T12:56:40.005615,82.236641,38.877861,19.824427,-0.037021,0.028821,0.144133
2025-09-30T12:56:40.198170,65.465652,-4.89313,-65.022903,0.037995,0.0269,0.157718
2025-09-30T12:56:40.403163,-25.564886,-27.244274,-113.900764,0.051201,0.018998,0.065247
2025-09-30T12:56:40.605683,-68.908394,-2.343511,21.198473,-0.006522,-0.009607,0.058373
2025-09-30T12:56:41.461310,-18.564886,-7.244275,26.954199,-0.01594,-0.003383,0.078751
2025-09-30T12:56:41.652433,22.045801,-34.67939,62.274811,-0.042704,0.018294,0.118207
2025-09-30T12:56:41.857774,29.19084,51.534351,-17.076336,-0.021839,0.033097,0.144214
2025-09-30T12:56:42.067301,18.419847,-24.053434,-82.984734,0.050065,0.030012,0.144078
2025-09-30T12:56:42.264391,-62.900764,-20.068703,-81.992363,0.046844,0.009688,0.047927
2025-09-30T12:56:42.456670,-75.022903,-7.687023,34.198475,-0.038536,-0.02441,0.065896
2025-09-30T12:56:43.212618,-0.839695,6.335878,3.778626,-0.003518,-0.004709,0.044463
2025-09-30T12:56:43.420690,53.916031,-23.282442,54.847328,-0.046736,0.034639,0.109033
2025-09-30T12:56:43.613269,68.152672,36.29771,13.328244,-0.030959,0.050011,0.144647
2025-09-30T12:56:43.822221,27.87023,-11.152672,-103.587784,0.065598,0.044165,0.148706
2025-09-30T12:56:44.017138,-85.442749,-27.053434,-98.610687,0.043705,0.014045,0.05775
2025-09-30T12:56:44.221526,-81.335876,11.816793,43.351147,-0.043813,-0.017293,0.058535
2025-09-30T12:56:59.906288,-12.763359,-1.59542,-3.129771,-0.01345,-0.018835,0.052176
2025-09-30T12:57:00.100032,-6.946565,19.480917,-63.900764,0.029146,0.008714,0.066519
2025-09-30T12:57:00.307358,80.435112,18.740458,-13.076336,0.037264,0.023111,0.17225
2025-09-30T12:57:00.505219,55.305344,-18.48855,102.893127,-0.037183,0.024978,0.17501
2025-09-30T12:57:00.705131,-60.396946,-50.763359,87.015266,-0.039889,0.015101,0.051634
2025-09-30T12:57:00.911660,-110.809158,60.473282,-26.748091,0.055071,-0.032853,0.071363
2025-09-30T12:57:01.765027,-48.64122,4.259542,-57.862595,0.034098,-0.003545,0.04403
2025-09-30T12:57:01.959489,81.587784,17.435114,-33.763359,0.038347,0.023625,0.189597
2025-09-30T12:57:02.165522,87.351143,6.465649,94.290077,-0.041486,0.0269,0.172304
2025-09-30T12:57:02.368363,-19.045801,-44.564884,99.32061,-0.0479,0.021163,0.067412
2025-09-30T12:57:02.562740,-128.816788,16.183207,-2.030534,0.039348,-0.023571,0.051932
2025-09-30T12:57:03.412448,-36.099236,14.954199,-34.221375,0.024626,-0.006549,0.049659
2025-09-30T12:57:03.621589,51.740459,31.045801,-41.32061,0.050552,0.018646,0.148787
2025-09-30T12:57:03.815729,67.755722,-14.748092,54.534351,-0.020405,0.03077,0.183237
2025-09-30T12:57:04.024477,-13.076336,-13.671756,106.076332,-0.059482,0.028848,0.088926
2025-09-30T12:57:04.227830,-99.03817,-24.458015,9.931297,0.007307,-0.0059,0.056262
2025-09-30T12:57:05.075971,-35.35878,20.022902,-43.419846,0.043164,-0.0023,0.062026
2025-09-30T12:57:05.269575,50.984734,24.740458,-56.610687,0.04062,0.018754,0.151223
2025-09-30T12:57:05.479449,82.832062,0.267176,80.580154,-0.05997,0.024951,0.171168
2025-09-30T12:57:05.673667,-48.961834,-0.923664,83.274811,-0.04403,0.035749,0.071146
2025-09-30T12:57:05.882283,-105.083969,-8.419847,-14.694656,0.039971,-0.018294,0.064218
2025-09-30T12:57:06.723018,-56.206108,16.480917,-1.580153,0.008768,-0.019052,0.029877
2025-09-30T12:57:06.933493,34.213741,32.67939,-66.816795,0.049551,0.00728,0.112876
2025-09-30T12:57:07.126541,85.564888,5.854962,27.076336,-0.03813,0.033828,0.193331
2025-09-30T12:57:07.335743,20.908398,-23.778625,92.412216,-0.071119,0.037941,0.113552
2025-09-30T12:57:07.532851,-66.488548,-43.801525,22.030535,-0.00322,-0.007902,0.032366
2025-09-30T12:57:07.722936,-46.175571,73.404579,-71.984734,0.049551,-0.029119,0.120724
2025-09-30T12:57:08.487111,-28.664122,15.229008,-1.816794,-0.000893,-0.019295,0.025168
2025-09-30T12:57:08.676964,29.114504,34.34351,-74.954201,0.066464,0.020675,0.125839
2025-09-30T12:57:08.886559,110.473282,7.137404,25.404581,-0.033368,0.038672,0.180829
2025-09-30T12:57:09.097112,0.877863,1.946565,122.061066,-0.067818,0.045221,0.100914
2025-09-30T12:57:09.291406,-69.366409,-58.893131,18.244274,-0.002571,-0.003275,0.052798
2025-09-30T12:57:10.134803,-38.32061,15.267176,-12.641221,0.000812,-0.020405,0.035532
2025-09-30T12:57:10.345306,10.366412,62.770992,-76.045799,0.049199,0.013071,0.129221
2025-09-30T12:57:10.540123,107.96183,-28.977098,38.969467,-0.036642,0.029281,0.166215
2025-09-30T12:57:10.748382,8.167939,10.053435,105.847328,-0.063055,0.034125,0.108654
2025-09-30T12:57:10.943791,-70.35878,-53.374046,28.351145,-0.021487,-0.004492,0.054314
2025-09-30T12:57:11.137817,-42.648853,86.847328,-68.793892,0.055964,-0.032664,0.103837
2025-09-30T12:57:11.896250,-19.343512,32.137405,-27.076336,0.041243,0.004195,0.067899
2025-09-30T12:57:12.104943,97.656487,28.022902,-37.419846,0.022164,0.03556,0.163401
2025-09-30T12:57:12.301916,58.236641,-5.030534,97.549622,-0.082756,0.037075,0.146839
2025-09-30T12:57:12.493805,-80.167938,-24.12977,83.900764,-0.039105,0.015236,0.063109
2025-09-30T12:57:12.700523,-86.251907,15.259542,-39.832062,0.027739,-5.40E-05,0.077479
2025-09-30T12:57:13.549000,-21.038168,28.564886,-4.374046,0.024545,-0.00046,0.053421
2025-09-30T12:57:13.758849,64.977097,53.786259,-59.458015,0.030418,0.031446,0.145432
2025-09-30T12:57:13.952541,50.34351,-26.251909,69.068703,-0.045221,0.0456,0.173928
2025-09-30T12:57:14.163078,-20.67939,-2.412214,107.71756,-0.062703,0.032123,0.091713
2025-09-30T12:57:14.357318,-73.931297,-39.35878,-5.938931,-0.006089,-0.006874,0.064678
2025-09-30T12:57:14.569869,-50.160305,80.328247,-94.534348,0.028442,-0.022001,0.089278
2025-09-30T12:57:15.308265,-15.267176,19.259542,10.465649,-0.017428,-0.020188,0.033476
2025-09-30T12:57:15.503533,22.67939,42.595421,-88.175575,0.061783,0.032177,0.110251
2025-09-30T12:57:15.714197,125.587784,9.832061,1.610687,-0.026764,0.049307,0.178095
2025-09-30T12:57:15.913108,19.725191,12.473283,131.038162,-0.086057,0.03813,0.115555
2025-09-30T12:57:16.119324,-86.893127,-52.106869,26.885496,-0.01372,0.000731,0.056993
2025-09-30T12:57:16.312397,-72.366409,43.70229,-66.381676,0.059509,-0.041838,0.085354
2025-09-30T12:57:17.071464,-52.145039,4.38168,-10.549619,0.04016,-0.002111,0.04357
2025-09-30T12:57:17.267977,89.473282,40.541985,-76.60305,0.01824,0.038428,0.172764
2025-09-30T12:57:17.464706,96.351143,22.557251,99.526718,-0.057615,0.032393,0.158557
2025-09-30T12:57:17.671443,-40.137405,-17.740458,83.213737,-0.048468,0.02828,0.087681
2025-09-30T12:57:17.864537,-87.259544,-39.732826,-9.778625,0.004519,-0.013504,0.071146
2025-09-30T12:57:18.820645,-20.083969,10.900764,-5.389313,0.003708,-0.017969,0.045843
2025-09-30T12:57:19.027425,33.503819,51.038166,-75.28244,0.040945,0.012611,0.136285
2025-09-30T12:57:19.222702,65.877861,13.068703,24.465649,-0.025925,0.02828,0.163238
2025-09-30T12:57:19.428768,18.603054,-20,95.39695,-0.06135,0.027874,0.13347
2025-09-30T12:57:19.628205,-51.862595,-53.0229,58.35878,-0.013639,2.70E-05,0.049794
2025-09-30T12:57:19.825166,-73.450378,25.496183,-42.198475,0.035587,-0.025628,0.065084
2025-09-30T12:57:20.885748,-70.297707,19.648855,-19.045801,0.02165,-0.012773,0.049415
2025-09-30T12:57:21.079206,73.152672,31.015266,-72.633591,0.061783,0.028496,0.14351
2025-09-30T12:57:21.289622,89.839691,14.511451,59.068703,-0.040322,0.042352,0.183887
2025-09-30T12:57:21.485015,13.068703,-8.717557,110.893127,-0.056993,0.031311,0.102944
2025-09-30T12:57:21.678348,-93.954201,-44.61832,15.053435,-0.009715,-0.01188,0.044544
2025-09-30T12:57:22.637492,-56.045803,26.564886,-19.519083,0.016318,-0.012124,0.038482
2025-09-30T12:57:22.838254,62.305344,39.732826,-68.458015,0.051851,0.026764,0.140182
2025-09-30T12:57:23.039962,100,24.694656,49.412212,-0.045464,0.040593,0.167298
2025-09-30T12:57:23.245021,-2.091603,17.412214,103.580154,-0.058562,0.038861,0.110765
2025-09-30T12:57:23.443281,-79.122139,-44.038166,28,-0.002787,0.005412,0.060971
2025-09-30T12:57:23.641354,-70.076332,28.061069,-65.854965,0.043624,-0.028361,0.062026
2025-09-30T12:57:24.493519,-61,5.29771,4.984733,-0.006711,-0.021677,0.025411
2025-09-30T12:57:24.687416,36.916031,39.083969,-75.183205,0.056073,0.023517,0.121211
2025-09-30T12:57:24.902158,107.977097,-9.725191,28.923664,-0.022218,0.038996,0.164023
2025-09-30T12:57:25.091280,32.946564,26.442749,86.702293,-0.077208,0.040999,0.12638
2025-09-30T12:57:25.303925,-86.984734,-35.778625,47.015266,-0.009255,0.011934,0.059022
2025-09-30T12:57:25.495631,-107.167938,47.519085,-63.480915,0.047873,-0.025411,0.047007
2025-09-30T12:57:26.450141,3.679389,45.305344,-54.427483,0.056912,0.017455,0.105271
2025-09-30T12:57:26.649649,118.442749,-19.213741,11.427481,-0.01667,0.02552,0.176201
2025-09-30T12:57:26.854732,50.259541,6.251908,96.60305,-0.074448,0.036804,0.122537
2025-09-30T12:57:27.058582,-87.664124,-43.053436,36.206108,-0.006441,0.001705,0.056316
2025-09-30T12:57:27.261314,-77.824425,28.67939,-54.015266,0.028199,-0.025547,0.051418
2025-09-30T12:57:28.297258,-37.648853,35.816795,-32.824429,0.050714,0.003302,0.050579
2025-09-30T12:57:28.507130,92.839691,17.114504,-46.366413,0.007253,0.028794,0.182885
2025-09-30T12:57:28.702406,69.022903,-1.480916,95.305344,-0.071579,0.034748,0.149816
2025-09-30T12:57:28.910456,-69.335876,-21.61832,67.786263,-0.050525,0.023219,0.076829
2025-09-30T12:57:29.116038,-98.580154,-2.633588,-20.061069,0.011258,-0.019647,0.047223
2025-09-30T12:57:30.159931,-13.969465,7.030534,-26.748091,0.042325,-2.70E-05,0.04514
2025-09-30T12:57:30.366187,81.183205,46.435116,-39.076336,0.021027,0.034017,0.171898
2025-09-30T12:57:30.564397,68.854965,-10.740458,90.618324,-0.082377,0.02782,0.155012
2025-09-30T12:57:30.770403,-61.129772,-16.763359,74.503815,-0.040728,0.02073,0.070713
2025-09-30T12:57:30.965336,-81.725189,-42.0229,-24.106871,0.023328,-0.014505,0.053745
2025-09-30T12:57:31.821817,-39.801525,23.015266,-2.122137,0.000595,-0.027522,0.039862
2025-09-30T12:57:32.019166,40.335876,25.32061,-60.832062,0.048549,0.017266,0.113471
2025-09-30T12:57:32.226944,96.076332,7.931298,26.61832,-0.021704,0.043949,0.177581
2025-09-30T12:57:32.420055,37.923664,-2.916031,87.274811,-0.064976,0.038455,0.123674
2025-09-30T12:57:32.614072,-68.465652,-46.167938,34.580154,-0.01824,0.00682,0.050768
2025-09-30T12:57:32.828451,-98.870232,44.244274,-54.793892,0.055315,-0.038888,0.091849
2025-09-30T12:57:33.580314,-15.038168,24.801527,-11.961832,0.009445,-0.018971,0.038049
2025-09-30T12:57:33.774093,22.603054,27.198473,-55.587788,0.040458,0.024654,0.131278
2025-09-30T12:57:33.984541,86.770996,-6.305344,38.65649,-0.02828,0.038563,0.164754
2025-09-30T12:57:34.176032,10.80916,22.862595,86.28244,-0.060836,0.027333,0.116989
2025-09-30T12:57:34.371047,-61.465649,-40.335876,38.251907,-0.009607,0.009066,0.068954
2025-09-30T12:57:34.581089,-66.511452,17.854961,-45.938931,0.055369,-0.029768,0.080158
2025-09-30T12:57:35.534828,-21.480917,27.427481,-11.450381,0.030445,-0.007929,0.041567
2025-09-30T12:57:35.728600,57.992367,22.351145,-58.274811,0.046195,0.033476,0.147136
2025-09-30T12:57:35.938351,99.893127,-1.129771,70.221375,-0.046303,0.036615,0.168976
2025-09-30T12:57:36.132503,-17.916031,5.801527,94.343513,-0.063948,0.030066,0.090847
2025-09-30T12:57:36.340037,-79.435112,-32.213741,3.900763,-0.002111,-0.001597,0.054395
2025-09-30T12:57:36.534476,-43.70229,58.961834,-80.96183,0.035749,-0.036642,0.108925
2025-09-30T12:57:37.488923,-11.541985,10.122137,-40.305344,0.058616,0.001245,0.066546
2025-09-30T12:57:37.682035,99.618324,30.038168,-26.648855,0.004168,0.034098,0.154984
2025-09-30T12:57:37.890179,50.091602,-20.083969,85.39695,-0.080401,0.03648,0.145513
2025-09-30T12:57:38.092904,-68.832062,-10.526717,73.328247,-0.024302,0.018862,0.073311
2025-09-30T12:57:38.292509,-99.610687,-9.297709,-27.167938,0.019864,-0.0082,0.066302
2025-09-30T12:57:39.345453,-53.435116,23.274809,-1.984733,0.010284,-0.01253,0.053123
2025-09-30T12:57:39.553764,49.083969,29.083969,-62.709923,0.048008,0.008227,0.136609
2025-09-30T12:57:39.747792,79.67939,7.61832,38.809162,-0.037752,0.015723,0.167785
2025-09-30T12:57:39.955051,0.198473,-5.862596,82.908394,-0.055207,0.020865,0.108032
2025-09-30T12:57:40.149788,-79.740456,-45.38168,15.045801,-0.01142,-0.011393,0.047034
2025-09-30T12:57:41.201535,-25.961832,8.633588,-6.709924,0.01372,-0.01732,0.041432
2025-09-30T12:57:41.409986,39.954197,47.35878,-46.534351,0.034044,0.014208,0.132361
2025-09-30T12:57:41.590998,71.763359,-9.38168,32.511452,-0.030634,0.031581,0.166621
2025-09-30T12:57:41.804777,-6.908397,-1.526718,84.404579,-0.06457,0.009959,0.098695
2025-09-30T12:57:42.009693,-81.145035,-53.175571,28.70229,-0.013775,-0.004709,0.060619
2025-09-30T12:57:43.062392,-13.832061,-4.671756,-4.870229,0.019052,-0.016345,0.050308
2025-09-30T12:57:43.258151,25.786259,52.610687,-37.625954,0.035614,0.020405,0.142103
2025-09-30T12:57:43.455414,67.870232,4.78626,51.229008,-0.050633,0.033151,0.177744
2025-09-30T12:57:43.661197,-31.916031,-22.587786,97.022903,-0.062595,0.012854,0.090333
2025-09-30T12:57:43.854248,-62.671757,-59.793892,-0.748092,0.005277,-0.014289,0.040241
2025-09-30T12:57:44.807186,-18.51145,18.885496,-15.519084,0.006793,-0.012719,0.049957
2025-09-30T12:57:45.017879,40.946564,32.625954,-64.694656,0.035289,0.029335,0.134959
2025-09-30T12:57:45.212775,81.312981,12.923664,37.809162,-0.032772,0.037346,0.147407
2025-09-30T12:57:45.421717,12.465649,16.022902,92.824425,-0.065003,0.032935,0.129573
2025-09-30T12:57:45.616062,-87.259544,-24.595419,51.984734,-0.019999,0.004113,0.056749
2025-09-30T12:57:45.815910,-82.450378,12.480916,-49.282444,0.079021,-0.036236,0.067736
2025-09-30T12:57:46.664877,-33.244274,26.534351,-19.832062,0.010148,-0.01437,0.044517
2025-09-30T12:57:46.874932,44.068703,54.671757,-65.450378,0.034883,0.028605,0.142807
2025-09-30T12:57:47.070081,87.458015,2.755725,45.778625,-0.030607,0.045437,0.161696
2025-09-30T12:57:47.275761,11.694656,24.564886,96.465652,-0.056803,0.030715,0.10381
2025-09-30T12:57:47.479351,-104.977097,-40.862595,32.419846,-0.014451,-0.005818,0.056208
2025-09-30T12:57:48.628916,-14.534351,23.526718,-38.908398,0.027495,-0.010013,0.050471
2025-09-30T12:57:48.831055,84.137405,38.854961,-48.67939,0.018213,0.026386,0.156311
2025-09-30T12:57:49.026260,51.450382,-16.328245,62.305344,-0.044544,0.031825,0.154984
2025-09-30T12:57:49.234892,-16.152672,-6.473282,96.160309,-0.050714,0.018186,0.100048
2025-09-30T12:57:49.427110,-74.122139,-55.801525,11.534351,0.001597,-0.013369,0.04974
2025-09-30T12:57:50.284750,-5.603054,5.335878,2.351145,-0.0269,-0.029498,0.067439
2025-09-30T12:57:50.478847,-22.816793,26.984734,-42.725189,0.027333,-0.00479,0.057994
2025-09-30T12:57:50.688529,-10.931297,16.70229,-57.213741,0.020324,0.035424,0.146731
2025-09-30T12:57:50.882146,129.480911,5.244275,84.160309,-0.057453,0.049821,0.170762
2025-09-30T12:57:51.076486,-37.519085,3.503817,107,-0.055152,0.027387,0.094771
2025-09-30T12:57:51.287584,-78.824425,-46.603054,-11.206107,0.007659,-0.013856,0.041513
2025-09-30T12:57:52.130189,-17.534351,25.534351,-24.801527,0.005331,-0.02119,0.038726
2025-09-30T12:57:52.340278,47.396946,45.38168,-52.435116,0.034667,0.030661,0.135608
2025-09-30T12:57:52.535567,96.274811,10.297709,50.847328,-0.017157,0.044246,0.147678
2025-09-30T12:57:52.744166,21.282442,43.206108,93.297707,-0.07507,0.029687,0.12159
2025-09-30T12:57:52.938700,-102.503815,-39.671757,46.893131,-0.019025,0.009932,0.061377
2025-09-30T12:57:53.149666,-79.633591,14.984733,-63.816795,0.04993,-0.028713,0.097992
2025-09-30T12:57:53.891665,-27.374046,33,-18.305344,0.018023,-0.008958,0.043543
2025-09-30T12:57:54.102664,78.778625,12.21374,-41.587788,0.031284,0.035668,0.144917
2025-09-30T12:57:54.295313,78.450378,-18.48855,48.534351,-0.047683,0.04771,0.166323
2025-09-30T12:57:54.505946,-22.458015,14.572519,99.893127,-0.063461,0.032393,0.097478
2025-09-30T12:57:54.700220,-87.343513,-18.221375,9.114504,-0.00046,-0.009607,0.043786
2025-09-30T12:57:55.653862,-12.740458,30.893129,-42.091602,0.045978,0.015967,0.075747
2025-09-30T12:57:55.850656,116.435112,-4.236641,-18.648855,0.007875,0.044869,0.143212
2025-09-30T12:57:56.057867,50.305344,-5.183206,77.519081,-0.061593,0.046357,0.153469
2025-09-30T12:57:56.255064,-83.648857,7.694656,98.740456,-0.051905,0.030526,0.084271
2025-09-30T12:57:56.462190,-89.71756,-38.198475,-12.40458,0.0128,-0.012665,0.043489
2025-09-30T12:57:57.399831,-7.732824,48.725189,-49.763359,0.03491,0.01096,0.078209
2025-09-30T12:57:57.609096,112.969467,-8.19084,-15.503817,0.013179,0.05112,0.159747
2025-09-30T12:57:57.807740,56.137405,-30.152672,93.091606,-0.074096,0.049118,0.150167
2025-09-30T12:57:58.013991,-71.244278,-9.625955,109.091606,-0.030147,0.021568,0.069901
2025-09-30T12:57:58.208294,-121.60305,-13.183207,-38.969467,0.027684,-0.019972,0.048874
2025-09-30T12:57:59.068044,-29.641222,44.671757,-22.992367,0.010798,-0.016373,0.046439
2025-09-30T12:57:59.257031,48.35878,52.259541,-60.167938,0.031013,0.041459,0.1273
2025-09-30T12:57:59.466209,104.290077,-4,39.694656,-0.036453,0.051228,0.169138
2025-09-30T12:57:59.659673,-3.061069,8.442748,110.71756,-0.068548,0.037697,0.11136
2025-09-30T12:57:59.871038,-94.015266,-36.160305,28.893129,-0.013477,0.002814,0.042
2025-09-30T12:58:00.813722,0.587786,-1.938931,14.427481,-0.044219,-0.02165,0.075097
2025-09-30T12:58:01.020371,-20.954199,13.748092,-38.175571,0.031744,-0.011204,0.043678
2025-09-30T12:58:01.229726,59.64122,24.442749,-54.717556,0.017563,0.050714,0.156311
2025-09-30T12:58:01.424058,87.435112,-9.534351,81.580154,-0.079887,0.037535,0.16037
2025-09-30T12:58:01.617656,-65.465652,-3.938931,93.60305,-0.040755,0.032041,0.078588
2025-09-30T12:58:01.828287,-116.664124,-37.725189,-51.145039,0.030174,-0.021379,0.047954
2025-09-30T12:58:02.768521,-39.328243,27.503817,-12.770992,0.006387,-0.01621,0.046493
2025-09-30T12:58:02.978228,50.053436,33.64122,-63.183205,0.050687,0.03491,0.139478
2025-09-30T12:58:03.175695,111.083969,20.480917,38.221375,-0.054422,0.033313,0.180558
2025-09-30T12:58:03.380613,-23.206106,-0.251908,104.687019,-0.085002,0.018105,0.10289
2025-09-30T12:58:03.585859,-71.954201,-73.625954,-1.061069,0.022001,-0.021596,0.020378
2025-09-30T12:58:04.532043,4.229008,-3.076336,13.022901,-0.038049,-0.021135,0.072391
2025-09-30T12:58:04.738685,-17.282442,30.465649,-34.076336,0.024572,0.00617,0.059482
2025-09-30T12:58:04.934355,60.389313,50.824429,-76.671753,0.030174,0.039105,0.136095
2025-09-30T12:58:05.135744,54.007633,16.396946,79.076332,-0.063975,0.04817,0.175849
2025-09-30T12:58:05.337409,-46.961834,-39.305344,102.732826,-0.061674,0.028983,0.077479
2025-09-30T12:58:05.538382,-104.854965,-23.099237,-11.465649,0.006251,-0.019485,0.031338
2025-09-30T12:58:06.388700,-10.893129,35.610687,-32.931297,0.028983,-0.004601,0.066329
2025-09-30T12:58:06.584679,106.656487,49.122139,-40.106869,0.009742,0.042217,0.14029
2025-09-30T12:58:06.793985,33.671757,4.580153,58.030533,-0.068765,0.045762,0.158394
2025-09-30T12:58:06.994782,-43.442749,2.793893,104.557251,-0.067141,0.019593,0.092471
2025-09-30T12:58:07.198570,-72.709923,-48.671757,0.984733,-0.000514,-0.009769,0.041973
2025-09-30T12:58:08.151487,-48.458015,19.633587,2.816794,-0.007253,-0.029011,0.029741
2025-09-30T12:58:08.349019,36.35878,34.580154,-94.137405,0.052771,0.021487,0.097802
2025-09-30T12:58:08.554938,114.625954,5.679389,12.931297,-0.011123,0.044463,0.168813
2025-09-30T12:58:08.749736,15.778625,-16.465649,110.816795,-0.063704,0.031771,0.130466
2025-09-30T12:58:08.950356,-83.175575,-45.526718,63.832062,-0.01594,-0.001786,0.048252
2025-09-30T12:58:09.994906,-44.076336,28.374046,-33.992367,0.021541,-0.004628,0.056533
2025-09-30T12:58:10.203027,93.885498,52.526718,-67.312981,0.030607,0.040945,0.142644
2025-09-30T12:58:10.397204,63.64122,10.083969,65,-0.078778,0.032583,0.163049
2025-09-30T12:58:10.605438,-34.564884,-14.267176,98.290077,-0.060808,0.033719,0.099128
2025-09-30T12:58:10.799744,-117.664124,-65.847328,-8.938931,0.017644,-0.019106,0.038834
2025-09-30T12:58:11.862583,-19.007633,26.541985,-42.160305,0.044274,0.006089,0.076288
2025-09-30T12:58:12.047230,111.618324,22.931297,-33.923664,-0.00092,0.052338,0.162724
2025-09-30T12:58:12.265002,47.824429,-3.916031,75.816795,-0.090008,0.041594,0.14489
2025-09-30T12:58:12.450857,-88.923668,5.534351,95.954201,-0.036155,0.020432,0.071877
2025-09-30T12:58:12.665742,-117.511452,-47.961834,-43.114502,0.032339,-0.016318,0.052636
2025-09-30T12:58:13.617518,6.908397,47.076336,-55.64122,0.036696,0.019214,0.091822
2025-09-30T12:58:13.814345,125.809158,15.648855,-3.167939,-0.014045,0.043408,0.172629
2025-09-30T12:58:14.006636,37.938931,-9.007633,99.106873,-0.08622,0.037779,0.126596
2025-09-30T12:58:14.217696,-85.992363,-38.67939,75.068703,-0.022922,0.003816,0.05775
2025-09-30T12:58:14.412688,-101.809158,23.519083,-55.160305,0.05177,-0.033232,0.068981
2025-09-30T12:58:15.376530,-32.129772,49.045803,-28.312977,0.028469,-0.000866,0.045004
2025-09-30T12:58:15.560189,109.519081,57.488548,-48.587788,0.014397,0.052879,0.178826
2025-09-30T12:58:15.777917,62.931297,-6,82.32061,-0.099615,0.037292,0.149789
2025-09-30T12:58:15.978440,-82.244278,-16.763359,93.389313,-0.040458,0.023869,0.060375
2025-09-30T12:58:16.178956,-137.900757,-24.961832,-45.396946,0.042352,-0.028605,0.045112
2025-09-30T12:58:17.128077,-41.083969,25.587786,-14.725191,0.016562,-0.013585,0.051986
2025-09-30T12:58:17.326099,51.885498,42.229008,-62.748093,0.025925,0.026007,0.145648
2025-09-30T12:58:17.519704,87.618324,12.801527,53.221375,-0.070605,0.037373,0.175606
2025-09-30T12:58:17.727437,-40.427483,-13.992367,102.923668,-0.057047,0.023003,0.080645
2025-09-30T12:58:17.932563,-116.702293,-26.259542,-22.412214,0.015398,-0.014045,0.043029
2025-09-30T12:58:18.989464,-44.351147,39.984734,-28.114504,0.027333,-0.008552,0.054909
2025-09-30T12:58:19.170281,93.244278,51.809162,-56.694656,0.014289,0.032583,0.150519
2025-09-30T12:58:19.390206,51.198475,0.526718,64.656487,-0.054557,0.031392,0.157366
2025-09-30T12:58:19.590726,-41.564884,-22.641222,93.541985,-0.048414,0.016237,0.087627
2025-09-30T12:58:19.791378,-111.885498,-45.541985,-13.473283,0.021027,-0.015669,0.045627
2025-09-30T12:58:20.837049,-29.198473,22.946566,-14.740458,0.029606,-0.006116,0.051499
2025-09-30T12:58:21.042584,90.137405,41.053436,-59.755726,0.02763,0.046736,0.150465
2025-09-30T12:58:21.241059,63.412212,7.832061,87.870232,-0.085002,0.02192,0.156852
2025-09-30T12:58:21.434977,-61.694656,-18.572519,73.900764,-0.041757,0.026819,0.071525
2025-09-30T12:58:21.644188,-121.221375,-34.64122,-21.969465,0.031203,-0.022813,0.057886
2025-09-30T12:58:22.583278,-35.847328,14.022901,1.938931,-0.01299,-0.021379,0.039971
2025-09-30T12:58:22.801226,11.465649,16.801527,-74.748093,0.050633,0.015912,0.088141
2025-09-30T12:58:23.002112,100.870232,18.954199,9.40458,-0.007388,0.038536,0.176526
2025-09-30T12:58:23.202665,30.358778,-0.129771,82.664124,-0.080266,0.029119,0.123728
2025-09-30T12:58:23.403321,-79.213737,-28.977098,50.335876,-0.016589,0.003193,0.046817
2025-09-30T12:58:24.350717,-16.053434,22.022902,3.877863,-0.010771,-0.026169,0.033828
2025-09-30T12:58:24.548103,31.450382,45.763359,-86.03817,0.032231,0.027549,0.107626
2025-09-30T12:58:24.751806,118.175575,17.534351,18.427481,-0.013531,0.049524,0.174496
2025-09-30T12:58:24.956205,25.824427,-5.274809,106.427483,-0.074015,0.032474,0.121617
2025-09-30T12:58:25.141909,-85.778625,-64.32061,65.832062,-0.012584,-0.004601,0.046953
2025-09-30T12:58:26.195351,-49.938931,26.610687,-23.984734,0.019809,-0.011177,0.04974
2025-09-30T12:58:26.406576,110.427483,16.816793,-55.694656,0.029606,0.033963,0.13937
2025-09-30T12:58:26.616417,80.259544,-5.290076,56,-0.050308,0.033016,0.164592
2025-09-30T12:58:26.811785,-32.183205,8.358779,84.435112,-0.063677,0.031852,0.101375
2025-09-30T12:58:27.007116,-89.251907,-69.129768,4.19084,0.036588,-0.025465,0.036182
2025-09-30T12:58:28.059427,-45.129772,35.129772,-15.740458,-0.002436,-0.015804,0.04154
2025-09-30T12:58:28.271913,80.35878,66.793892,-79.763359,0.022056,0.031473,0.133335
2025-09-30T12:58:28.468147,105.908394,-40.748093,48.106869,-0.044003,0.043759,0.166053
2025-09-30T12:58:28.661394,-23.145039,-1.091603,103.503815,-0.076261,0.025087,0.110278
2025-09-30T12:58:28.858725,-95.076332,-61.374046,27.541985,-0.006874,-0.00728,0.04652
2025-09-30T12:58:29.070500,-75.106873,19.893129,-65.099236,0.049307,-0.037941,0.08235
2025-09-30T12:58:39.840693,-5.641222,-2.70229,0.099237,-0.023003,-0.015047,0.070957
2025-09-30T12:58:40.034323,-11.091603,19.496183,-65.763359,0.043164,0.009715,0.053204
2025-09-30T12:58:40.244271,35.351147,43.709923,-61.244274,0.014153,0.026196,0.152495
2025-09-30T12:58:40.438630,97.625954,-19.549618,86.335876,-0.020269,0.043759,0.15899
2025-09-30T12:58:40.646721,-68.389313,15.717557,135.43512,-0.038428,0.004898,0.088304
2025-09-30T12:58:40.840291,-82.503815,23.106871,-17.801527,-0.005872,-0.003762,0.049902
2025-09-30T12:58:41.049999,-35.038166,24.122137,-97.458015,0.017726,-0.032285,0.089603
2025-09-30T12:58:42.203292,-0.603053,-15.78626,2.526718,-0.006901,-0.014208,0.052338
2025-09-30T12:58:42.395524,-28.633587,9.916031,-109.786263,0.059807,-0.00184,0.065165
2025-09-30T12:58:42.603694,125.519081,42.496181,-25.755726,0.010067,0.084434,0.152116
2025-09-30T12:58:42.801721,134.396942,57.595421,170.267181,-0.046087,0.062946,0.142374
2025-09-30T12:58:43.008811,-127.35878,18.969465,105.412216,-0.030255,0.017022,0.095069
2025-09-30T12:58:43.202843,-150.28244,0.389313,-53.511452,0.002706,-0.023192,0.025438
2025-09-30T12:58:43.396590,-11.633588,50.221375,-119.625954,0.044815,-0.030851,0.116854
2025-09-30T12:58:44.349711,-57.190838,-1.053435,-19.305344,-0.008525,-0.027982,0.047277
2025-09-30T12:58:44.560612,9.603053,65.229004,-151.885498,0.025357,0.00847,0.075016
2025-09-30T12:58:44.755115,142.862595,80.351143,-29.832062,0.013937,0.079157,0.148084
2025-09-30T12:58:44.965291,84.389313,26.816793,157.251907,-0.034802,0.073771,0.150736
2025-09-30T12:58:45.158419,-96.412216,31.755726,156.71756,-0.038699,0.028794,0.084785
2025-09-30T12:58:45.352507,-150.541992,20.816793,-9.412213,0.006874,0.000704,0.077208
2025-09-30T12:58:46.210681,-37.885498,35.35878,-54.114502,0.001759,-0.018159,0.055261
2025-09-30T12:58:46.419448,15.328244,60.114502,-153.061066,0.03648,0.005088,0.08622
2025-09-30T12:58:46.618309,170.961838,63.900764,8.503817,0.012611,0.078453,0.166973
2025-09-30T12:58:46.824416,38.732826,22.312977,178.106873,-0.047602,0.056262,0.152008
2025-09-30T12:58:47.017938,-160.183212,-24.251909,119.847328,-0.039646,0.006955,0.063433
2025-09-30T12:58:47.971750,-34.740459,32.969467,6.419847,-0.015425,-0.024762,0.05794
2025-09-30T12:58:48.168994,-13.59542,31.587786,-136.022903,0.036534,-0.007821,0.055829
2025-09-30T12:58:48.375559,110.229004,42.267174,-63.732826,0.022949,0.04725,0.141886
2025-09-30T12:58:48.576403,95.923668,38.648853,89.648857,-0.015398,0.05775,0.152738
2025-09-30T12:58:48.781096,-43.496181,15.38168,150.091599,-0.040783,0.029119,0.110088
2025-09-30T12:58:48.968637,-106.39695,-9.229008,66.64122,-0.029525,0.00157,0.086166
2025-09-30T12:58:49.178805,-65.618324,0.984733,-79.725189,0.069685,-0.032366,0.066167
2025-09-30T12:58:50.023289,-20.801527,10.083969,-9.59542,-0.016427,-0.027008,0.058833
2025-09-30T12:58:50.226811,-31.083969,43.694656,-110.633591,0.044707,-0.00479,0.077289
2025-09-30T12:58:50.435382,102.061066,66.022903,-57.65649,0.030282,0.042217,0.119993
2025-09-30T12:58:50.627871,117.206108,31.610687,94.564888,-0.030634,0.070578,0.150871
2025-09-30T12:58:50.826417,-37.534351,32.244274,173.847336,-0.021541,0.036913,0.1168
2025-09-30T12:58:51.031997,-107.854965,13.572519,60.67939,-0.026331,0.003058,0.078886
2025-09-30T12:58:51.240789,-68.938934,27.51145,-91.473282,0.033828,-0.017753,0.068305
2025-09-30T12:58:52.178687,-18.236641,4.137404,-11.885496,0.00479,-0.019133,0.045789
2025-09-30T12:58:52.387585,-2.083969,35.557251,-140.595413,0.050796,0.009851,0.070037
2025-09-30T12:58:52.582144,128.534348,67.938934,-16.480917,0.033557,0.06752,0.163265
2025-09-30T12:58:52.791433,68.435112,39.229008,150.587784,-0.030851,0.046195,0.146325
2025-09-30T12:58:52.985066,-74.877861,1.114504,132.71756,-0.033259,0.028983,0.08649
2025-09-30T12:58:53.195651,-122.67939,21.541985,-50.938931,0.016318,-0.014911,0.03288
2025-09-30T12:58:53.389014,-6.259542,17.526718,-97.404579,0.02487,-0.036047,0.105136
2025-09-30T12:58:53.582354,12.854961,-6.725191,-7.755725,0.012611,-0.024978,0.09055
2025-09-30T12:58:55.150388,-8.076336,-10.458015,4.259542,-0.003247,-0.010175,0.051553
2025-09-30T12:58:55.344269,-6.274809,24.114504,-97.885498,0.029416,0.024356,0.083676
2025-09-30T12:58:55.537234,168.152664,59.274811,-36.526718,0.009228,0.086572,0.153198
2025-09-30T12:58:55.753106,107.595421,43.847328,151.198471,-0.022462,0.069658,0.118559
2025-09-30T12:58:55.958485,-82.816795,14.839695,190.07634,-0.003166,0.031798,0.101889
2025-09-30T12:58:56.154941,-171.992371,18.61832,12.442748,-0.001191,-0.018267,0.063921
2025-09-30T12:58:56.355542,-61.908398,85.557251,-107.801529,0.074745,-0.037833,0.107085
2025-09-30T12:58:57.302253,-50.854961,-5.091603,15.083969,-0.017401,-0.031987,0.052176
2025-09-30T12:58:57.506916,26.717558,51.244274,-123.297707,0.032014,0.001082,0.074989
2025-09-30T12:58:57.706308,131.885498,49.114502,-94.274811,0.034531,0.043597,0.135364
2025-09-30T12:58:57.900205,129.893127,27.290077,112.580154,-0.01004,0.074881,0.143294
2025-09-30T12:58:58.109878,-10.664123,33.557251,159.488556,-0.036561,0.037562,0.109195
2025-09-30T12:58:58.308083,-152.648849,21.51145,42.35878,-0.019268,-0.007523,0.065138
2025-09-30T12:58:59.567796,26.29771,8.702291,-15.59542,-0.020513,-0.023003,0.080077
2025-09-30T12:58:59.768823,-8.465649,17.099237,-47.229008,0.00866,0.012827,0.068251
2025-09-30T12:58:59.969464,52.32061,63.595421,-110.534348,0.034856,0.035397,0.098858
2025-09-30T12:59:00.170009,129.236649,-0.778626,41.244274,0.003762,0.089873,0.128031
2025-09-30T12:59:00.370691,89.267174,38.389313,157.740463,-0.022786,0.100346,0.111685
2025-09-30T12:59:00.563639,-122.770996,40,112.633591,-0.038996,0.02119,0.08714
2025-09-30T12:59:00.771713,-150.908401,4.564886,-19.633587,-0.00414,-0.005304,0.048387
2025-09-30T12:59:01.817836,8.480916,-23.526718,8,-0.001759,-0.015642,0.06208
2025-09-30T12:59:02.012857,5.91603,48.9771,-83.32061,0.003545,0.017834,0.075395
2025-09-30T12:59:02.220335,112.541985,21.282442,-23.038168,0.022164,0.06568,0.139018
2025-09-30T12:59:02.415140,70.519081,5.580153,109.221375,-0.04127,0.087032,0.135392
2025-09-30T12:59:02.626056,-62.221375,12.259542,118.648857,-0.038293,0.027143,0.086599
2025-09-30T12:59:02.820281,-117.541985,9.908397,-18.106871,-0.02146,0.012421,0.059347
2025-09-30T12:59:04.079745,-17.206106,4.755725,3.801527,-0.015344,-0.006414,0.055477
2025-09-30T12:59:04.283299,-33.244274,88.381676,-132.732819,0.02211,0.020351,0.069793
2025-09-30T12:59:04.483929,115.870232,50.442749,-64.160309,0.006657,0.09764,0.152955
2025-09-30T12:59:04.681549,86.450378,38.053436,135.450378,-0.043895,0.096016,0.105894
2025-09-30T12:59:04.873172,-65.145035,-2.854962,154.770996,-0.037156,0.046682,0.085949
2025-09-30T12:59:05.082506,-139.541992,-5.091603,0.229008,0.00111,0.009309,0.045762
2025-09-30T12:59:06.131122,-28.954199,12.007633,-1.015267,-0.027252,0.000514,0.052933
2025-09-30T12:59:06.326421,-8.137404,-1.664122,-93.564888,0.032718,0.031527,0.070903
2025-09-30T12:59:06.536266,97.229004,118.488548,-87.160309,0.015155,0.091984,0.150682
2025-09-30T12:59:06.729833,117.824425,55.854961,102.709923,-0.031933,0.08603,0.114229
2025-09-30T12:59:06.940163,-65.954201,33.954197,162.755722,-0.021568,0.056018,0.094961
2025-09-30T12:59:07.137936,-89.564888,2.160305,24.564886,0.001813,0.023815,0.065165
2025-09-30T12:59:07.344712,-72.694656,13.320611,-97.175575,0.038672,-0.009959,0.074367
2025-09-30T12:59:08.281336,0.625954,17.862595,12.641221,-0.029065,0.01594,0.089305
2025-09-30T12:59:08.490343,-27.137405,4.519084,-65.007637,-0.00479,0.001461,0.064922
2025-09-30T12:59:08.688362,-9.267176,9.244275,-119.022903,0.029444,0.028253,0.070361
2025-09-30T12:59:08.894762,88.870232,78.786263,-69.213737,0.007388,0.084921,0.13891
2025-09-30T12:59:09.088046,53.992367,19.29771,157.045807,-0.030959,0.090198,0.114554
2025-09-30T12:59:09.298598,-33.366413,15.732824,125.511452,-0.023192,0.057155,0.097775
2025-09-30T12:59:09.494216,-109.045799,0.328244,19.824427,-0.011772,0.016427,0.067709
2025-09-30T12:59:09.688861,-70.648857,2.641221,-71.297707,0.022137,-0.014803,0.064732
2025-09-30T12:59:10.741616,-55.122139,-11.145039,-6.946565,-0.01096,-0.000352,0.050363
2025-09-30T12:59:10.949862,15.839695,60.29771,-125.32061,0.014911,0.035803,0.086274
2025-09-30T12:59:11.143656,116.496185,90.114502,-28.114504,0.005006,0.081592,0.165241
2025-09-30T12:59:11.353476,23.236641,7.587786,136.870224,-0.026467,0.072716,0.109493
2025-09-30T12:59:11.552689,-18.396946,14.969465,116.900764,-0.026169,0.053258,0.098046
2025-09-30T12:59:11.761488,-84.435112,2.946565,8.496183,-0.010744,0.019566,0.084461
2025-09-30T12:59:11.955364,-75.549622,2.503817,-57.67939,0.013477,-0.009228,0.063677
2025-09-30T12:59:12.910607,3.320611,-7,45.007633,-0.031581,-0.002706,0.103918
2025-09-30T12:59:13.108484,-19.908398,-8.78626,-35.938931,-0.011934,-0.012259,0.056506
2025-09-30T12:59:13.313117,-26.083969,-18.053434,-93.022903,0.0374,0.001651,0.070416
2025-09-30T12:59:13.507715,80.763359,50.770992,-68.274811,0.02782,0.03767,0.112253
2025-09-30T12:59:13.712809,126.702293,60.625954,40.335876,-0.025384,0.085408,0.14941
2025-09-30T12:59:13.914049,5.877862,27.152672,139.977097,-0.037264,0.056939,0.113552
2025-09-30T12:59:14.114297,-86.236641,1.045802,78.984734,-0.03491,0.027035,0.086815
2025-09-30T12:59:14.306521,-106.778625,-0.198473,-35.839695,0.017076,-0.005196,0.045843
2025-09-30T12:59:15.264549,-6.770992,-3.763359,-0.961832,-0.022218,-0.020188,0.072093
2025-09-30T12:59:15.456320,-31.274809,37.65649,-85.557251,0.005331,-0.007659,0.063894
2025-09-30T12:59:15.667558,62.435116,46.435116,-91.290077,0.012557,0.027955,0.108844
2025-09-30T12:59:15.872367,131.251907,56.251907,28.641222,-0.0187,0.076207,0.149816
2025-09-30T12:59:16.065155,11.366412,6.78626,135.198471,-0.028983,0.059049,0.11726
2025-09-30T12:59:16.275107,-35.862595,15.702291,130.496185,-0.02533,0.044165,0.102105
2025-09-30T12:59:16.469536,-109.610687,-5.59542,16.358778,-0.02119,0.009201,0.070794
2025-09-30T12:59:16.678256,-62.694656,-9.320611,-63.511452,0.040701,-0.015101,0.073636
2025-09-30T12:59:18.023002,-8.687023,-19.557251,24.160305,-0.027441,-0.02441,0.068467
2025-09-30T12:59:18.232917,-54.763359,-11.389313,-72.427483,0.011799,-0.009634,0.061891
2025-09-30T12:59:18.433440,41.625954,84.381676,-110.335876,0.001651,0.027062,0.110061
2025-09-30T12:59:18.632810,116.488548,66.557251,52.122139,-0.026358,0.066302,0.131386
2025-09-30T12:59:18.831855,40.435116,25.938931,159.2061,-0.041161,0.055342,0.116935
2025-09-30T12:59:19.024769,-56.809162,-26.076336,100.793892,-0.021108,0.028172,0.086923
2025-09-30T12:59:19.234288,-94.305344,-35.839695,5.641222,-0.008687,0.009986,0.075016
2025-09-30T12:59:20.378107,-68.03817,-43.954197,19.076336,0.016995,-0.045356,0.108194
2025-09-30T12:59:20.584380,-9.053435,29.832062,12.137404,0.000893,-0.024762,0.065328
2025-09-30T12:59:20.777041,30.572519,-7.129771,64.442749,-0.01529,-0.032989,0.134201
2025-09-30T12:59:20.984462,-16.847328,-28.763359,-35.122139,-0.009012,-0.030905,0.055802
2025-09-30T12:59:21.188196,-53.694656,4.778626,-108.190842,0.028172,-0.013964,0.037643
2025-09-30T12:59:21.390134,39.809162,106.740456,-83.64122,0.021596,0.006089,0.153225
2025-09-30T12:59:21.596997,130.541992,15.778625,104.763359,-0.037292,0.026548,0.160316
2025-09-30T12:59:21.786855,-30.213741,0.854962,146.679382,-0.060348,0.004628,0.114445
2025-09-30T12:59:21.986300,-118.541985,-37.251907,40.801525,-0.017428,-0.024735,0.06476
2025-09-30T12:59:23.143543,5.541985,-3.679389,-0.992366,-0.025844,-0.046953,0.069171
2025-09-30T12:59:23.338394,-67.648857,3.679389,-72.503815,0.001651,-0.035072,0.035614
2025-09-30T12:59:23.549103,49.839695,82.03817,-102.877861,0.020702,0.002436,0.119371
2025-09-30T12:59:23.744195,84.778625,90.045799,28.946566,-0.015804,0.011204,0.162156
2025-09-30T12:59:23.951615,75.587784,3.916031,169.862595,-0.046844,0.024681,0.143321
2025-09-30T12:59:24.146036,-92.96183,-33.282444,117.442749,-0.023923,-0.011934,0.088141
2025-09-30T12:59:24.339633,-103.129768,-26.290077,-6.977099,-0.009012,-0.029741,0.047981
2025-09-30T12:59:24.550049,-48.763359,40.335876,-77.389313,0.055288,-0.0456,0.10703
2025-09-30T12:59:25.501945,-13.442748,11.946565,8.312977,-0.041649,-0.046249,0.069874
2025-09-30T12:59:25.696812,-8.389313,15.839695,-72.198471,0.015507,-0.017401,0.056424
2025-09-30T12:59:25.905294,52.687023,36.419846,-82.206108,0.036182,-0.00663,0.087465
2025-09-30T12:59:26.113808,105.839691,43.893131,-22.763359,0.016887,0.022191,0.129952
2025-09-30T12:59:26.305866,59.687023,26.244274,73.465652,-0.024518,0.043597,0.143781
2025-09-30T12:59:26.511706,-21.931297,-3.312977,124.71756,-0.032935,0.014641,0.120426
2025-09-30T12:59:26.710655,-106.152672,-18.274809,56.114502,-0.013883,-0.010067,0.052365
2025-09-30T12:59:26.905096,-76.656487,16.106871,-64.893127,0.014451,-0.042163,0.067385
2025-09-30T12:59:27.954474,25.862595,17.099237,50.305344,-0.029146,-0.037508,0.079292
2025-09-30T12:59:28.167549,-45.458015,-2.206107,-52,-0.000352,-0.027062,0.050498
2025-09-30T12:59:28.367644,-0.572519,58.931297,-83.450378,0.018402,-0.005764,0.088682
2025-09-30T12:59:28.569241,99.824425,70.977097,-30.015266,-0.015101,0.026007,0.161804
2025-09-30T12:59:28.763740,74.541985,13.511451,125.450378,-0.038536,0.039889,0.139045
2025-09-30T12:59:28.958176,-40.694656,-48.801525,113.839691,-0.025492,0.012313,0.105001
2025-09-30T12:59:29.169608,-95.778625,-34.35878,29.87023,-0.010987,-0.016778,0.077966
2025-09-30T12:59:29.365370,-66.099236,13.061069,-57.786259,0.023111,-0.029741,0.070226
2025-09-30T12:59:30.319285,4.648855,22.893129,7.664122,-0.023138,-0.037454,0.071254
2025-09-30T12:59:30.522610,-54.610687,1.954198,-100.251907,0.021081,-0.026954,0.043002
2025-09-30T12:59:30.722227,46.786259,58.274811,-96.35878,0.031148,0.01069,0.104135
2025-09-30T12:59:30.926829,135.030533,88.061066,13.106871,0.001813,0.045681,0.133957
2025-09-30T12:59:31.124424,37.770992,32.282444,108.778625,-0.043353,0.052473,0.130629
2025-09-30T12:59:31.329951,-49.954197,7.503817,133.687027,-0.035668,0.019728,0.111902
2025-09-30T12:59:31.531516,-98.687019,-24.12977,36.282444,-0.022056,-0.007767,0.067655
2025-09-30T12:59:32.682418,6.045802,4.122138,-10.297709,-0.003816,-0.016048,0.061404
2025-09-30T12:59:32.878058,-19.38168,46.511452,-105.236641,0.029552,-0.001299,0.071336
2025-09-30T12:59:33.071978,91.793892,66.404579,-58.251907,-0.001813,0.045275,0.129681
2025-09-30T12:59:33.282880,82.671753,54.267174,88.175575,-0.038022,0.057994,0.13845
2025-09-30T12:59:33.485468,-7.160306,4.351145,172.763351,-0.048008,0.045978,0.116502
2025-09-30T12:59:33.684865,-75.534348,-4.290076,94.687019,-0.027874,0.016318,0.078751
2025-09-30T12:59:33.882762,-115.465652,14,-41.366413,-0.004628,-0.014559,0.065301
2025-09-30T12:59:34.834772,-22.213741,-19.480917,20.70229,-0.020269,-0.029444,0.055883
2025-09-30T12:59:35.039824,-17.961832,51.32061,-101.648857,0.001543,-0.002679,0.075557
2025-09-30T12:59:35.239711,71.145035,51.793892,-59.64122,0.008416,0.032231,0.126434
2025-09-30T12:59:35.437818,98.435112,94.35878,45.70229,-0.041486,0.046601,0.158773
2025-09-30T12:59:35.633160,-13.167939,-2.770992,130.587784,-0.03813,0.039511,0.110224
2025-09-30T12:59:35.838114,-70.28244,-26.213741,108.977097,-0.026061,0.013666,0.097856
2025-09-30T12:59:36.040190,-72.67939,-28.175573,9.267176,-0.022813,0.002787,0.067168
2025-09-30T12:59:36.241800,-58.267174,30.229008,-95.664124,0.048225,-0.011772,0.093148
2025-09-30T12:59:37.292718,-35.053436,26.030535,-58.648853,0.007983,-0.024275,0.04679
2025-09-30T12:59:37.486440,21.312977,31.396946,-106.832062,0.044003,0.007415,0.097748
2025-09-30T12:59:37.697437,125.870232,46.816795,-14.175572,0.009742,0.057453,0.126461
2025-09-30T12:59:37.892490,47.259541,44.595421,100.122139,-0.035045,0.049442,0.137394
2025-09-30T12:59:38.101283,-97.106873,17.519083,109.496185,-0.032664,0.014126,0.090956
2025-09-30T12:59:38.296166,-118.625954,-32.488548,-0.877863,0.026656,-0.023788,0.058319
2025-09-30T12:59:39.250308,-35.717556,-16.885496,8.992367,-0.021163,-0.045464,0.076234
2025-09-30T12:59:39.451061,-53.190838,24.709923,-115.312981,0.013152,-0.02966,0.052744
2025-09-30T12:59:39.652744,52.183205,67.03817,-117.091606,0.024356,0.014857,0.094014
2025-09-30T12:59:39.853450,176.687027,95.946564,23.656488,-0.011123,0.058616,0.148111
2025-09-30T12:59:40.058535,29.274809,54.412212,135.374039,-0.053015,0.058725,0.123322
2025-09-30T12:59:40.254750,-57.160305,-25.12977,132.732819,-0.029038,0.019295,0.094825
2025-09-30T12:59:40.455685,-156.175568,-29.847328,-21.557251,0.010852,-0.019052,0.04246
2025-09-30T12:59:41.511193,-18.641222,17.564886,-92.923668,0.006387,-0.024924,0.06273
2025-09-30T12:59:41.711078,71.389313,68.389313,-81.824425,0.020405,0.029092,0.11017
2025-09-30T12:59:41.915431,113.908394,34.870228,50.709923,-0.026656,0.073771,0.158665
2025-09-30T12:59:42.108976,59.816795,19.38168,132.541992,-0.026494,0.066004,0.116638
2025-09-30T12:59:42.318372,-97.946564,-16.244274,107.007637,-0.033395,0.02192,0.092958
2025-09-30T12:59:42.512891,-108.175575,-29.007633,21.977098,-0.006928,-0.010825,0.069631
2025-09-30T12:59:43.670077,4.08397,-7.19084,3.21374,-0.01326,-0.016345,0.080401
2025-09-30T12:59:43.870781,-19.48855,8.664123,-41.473282,0.028875,-0.01372,0.065653
2025-09-30T12:59:44.071588,53.595421,44.519085,-65.572517,0.044923,0.005034,0.105894
2025-09-30T12:59:44.272502,48.267174,-20.404581,27.832062,0.014559,0.029281,0.152062
2025-09-30T12:59:44.472708,18.48855,28.641222,98.28244,-0.03445,0.033205,0.132225
2025-09-30T12:59:44.676915,-68.534348,-22.19084,56.175571,-0.026548,0.001326,0.078886
2025-09-30T12:59:44.875805,-61.114502,-14.977099,-21.12977,0.009742,-0.000216,0.078805
2025-09-30T12:59:45.716850,-14.152672,5.114504,-3.870229,-0.019728,-0.016751,0.076126
2025-09-30T12:59:45.927742,-19.160305,15.198473,-51.847328,0.022083,-0.018538,0.059807
2025-09-30T12:59:46.120953,56.32061,19.67939,-42.992367,0.028875,0.015615,0.103729
2025-09-30T12:59:46.328243,102.251907,76.137405,15.778625,-0.005845,0.045681,0.152982
2025-09-30T12:59:46.521055,25.67939,7.61832,98.809158,-0.028117,0.040972,0.119154
2025-09-30T12:59:46.729648,-54.114502,4.51145,74.404579,-0.028956,0.024491,0.099399
2025-09-30T12:59:46.924297,-80,-10.656488,-26.419847,-0.005277,-0.003653,0.064516
2025-09-30T12:59:47.984773,-8.877863,-6.862596,3.70229,-0.009201,-0.015534,0.060267
2025-09-30T12:59:48.187075,-15.251908,21.946566,-69.213737,0.037914,0.005494,0.075395
2025-09-30T12:59:48.384645,84.389313,43.832062,-48.091602,0.02238,0.049415,0.140533
2025-09-30T12:59:48.588905,97.938934,17.984734,92.213737,-0.019187,0.067385,0.138828
2025-09-30T12:59:48.783575,-17.099237,-25.534351,120.381676,-0.027333,0.036777,0.113498
2025-09-30T12:59:48.977675,-108.061066,-7.519084,28.290077,-0.017807,0.00111,0.071525
2025-09-30T12:59:50.238214,-23.87023,6.709924,-34.534351,-0.006387,-0.00912,0.058671
2025-09-30T12:59:50.437736,-7.122138,41.526718,-113.923668,0.057994,0.011474,0.080023
2025-09-30T12:59:50.642803,122.305344,58.267174,-32.274811,0.009851,0.063325,0.156852
2025-09-30T12:59:50.837362,86.122139,32.671757,122.885498,-0.035316,0.070172,0.135608
2025-09-30T12:59:51.047058,-89.64122,-8.763359,116.236641,-0.03721,0.014586,0.093743
2025-09-30T12:59:51.242496,-100.488548,-2.229008,14.687023,-0.010879,-0.00847,0.062189
2025-09-30T12:59:52.597747,-23.847328,-16.946566,-31.992367,-0.007632,-0.013098,0.052988
2025-09-30T12:59:52.793632,-29.526718,40.526718,-103.580154,0.041351,0.007009,0.058156
2025-09-30T12:59:52.993544,95.145035,55.9771,-77.854965,0.026115,0.045897,0.150086
2025-09-30T12:59:53.196868,107.068703,35.145039,118.381676,-0.037995,0.063839,0.152603
2025-09-30T12:59:53.391192,-37.992367,-22.374046,125.419846,-0.037427,0.021433,0.093472
2025-09-30T12:59:53.601887,-106.702293,17.38168,-18.137405,0.002923,-0.006874,0.068359
2025-09-30T12:59:54.751922,-9.839695,7.351145,-34.824429,-0.01207,-0.010662,0.055342
2025-09-30T12:59:54.946205,-22.358778,33.183205,-108.480919,0.038888,0.013342,0.076477
2025-09-30T12:59:55.157549,137.984726,14.633588,-7.458015,0.013612,0.063839,0.142076
2025-09-30T12:59:55.351235,59.786259,43.015266,100.030533,-0.036398,0.068115,0.140993
2025-09-30T12:59:55.545827,-100.618324,-25.564886,107.671753,-0.024221,0.014532,0.092038
2025-09-30T12:59:55.757537,-156.114502,-7.10687,14.328244,-0.004249,-0.027793,0.046222
2025-09-30T12:59:55.951224,-37.549618,85.709923,-108.267174,0.030607,-0.029308,0.114662
2025-09-30T12:59:56.914546,-0.916031,25.748091,33.992367,-0.028009,-0.029877,0.081213
2025-09-30T12:59:57.117272,-47.732826,13.374045,-104.076332,0.021866,-0.013017,0.05499
2025-09-30T12:59:57.306806,96.114502,68.496185,-119.381676,0.029525,0.03288,0.124675
2025-09-30T12:59:57.519983,134.236649,40.35878,72.106873,-0.013883,0.075747,0.138666
2025-09-30T12:59:57.714452,19.534351,-7.206107,166.946564,-0.027603,0.044652,0.111252
2025-09-30T12:59:57.920933,-131.244278,-14.603053,78.801529,-0.021731,-0.007226,0.075774
2025-09-30T12:59:58.115439,-101.740456,23.335878,-57.038166,0.020946,-0.029146,0.061133
2025-09-30T12:59:59.365476,-53.511452,13.045801,-37.61832,-0.006143,-0.024058,0.041621
2025-09-30T12:59:59.571446,57.969467,79.938934,-152.442749,0.04993,0.029362,0.092796
2025-09-30T12:59:59.765580,188.167938,36.557251,28.122137,0.013964,0.086815,0.144322
2025-09-30T12:59:59.973870,34.175571,35.709923,146.015274,-0.035776,0.063406,0.115041
2025-09-30T13:00:00.171310,-154.870224,-1.091603,96.946564,-0.020702,0.00728,0.084244
2025-09-30T13:00:00.377219,-117.450378,11.702291,-59.519085,0.010852,-0.033963,0.044003
2025-09-30T13:00:01.623678,-62.198475,-17.67939,3.916031,-0.023355,-0.027441,0.069414
2025-09-30T13:00:01.821567,-72.755722,31.244274,-112.778625,0.022786,-0.020459,0.05499
2025-09-30T13:00:02.026742,117.557251,71.167938,-96.221375,0.034937,0.033395,0.113634
2025-09-30T13:00:02.222688,146.56488,38.885498,75.725189,-0.026277,0.07959,0.151737
2025-09-30T13:00:02.431911,24.32061,24.435114,159.068695,-0.045356,0.050579,0.114689
2025-09-30T13:00:02.626999,-145.511444,-2.648855,80.251907,-0.026819,-0.005467,0.07894
2025-09-30T13:00:03.776218,-44.34351,-15.954199,6.770992,-0.011095,-0.028334,0.068711
2025-09-30T13:00:03.987387,-86.67939,54.34351,-132.473282,0.024599,-0.021677,0.046709
2025-09-30T13:00:04.184630,118.045799,69.412216,-94.328247,0.032907,0.043002,0.115826
2025-09-30T13:00:04.391403,132.473282,63.633587,48.709923,-0.012719,0.076559,0.138828
2025-09-30T13:00:04.589589,-5.427481,49.389313,141.64122,-0.045058,0.056424,0.120264
2025-09-30T13:00:04.793733,-106.175575,4.51145,114.106873,-0.037995,0.014911,0.076207
2025-09-30T13:00:04.988002,-94.076332,8.702291,-53.045803,0.024031,-0.015967,0.075422
2025-09-30T13:00:06.035505,-55.137405,3.610687,-42.778625,-0.002165,-0.036128,0.053123
2025-09-30T13:00:06.245696,-0.40458,52.419846,-130.343506,0.014126,-0.010717,0.072608
2025-09-30T13:00:06.443881,110.580154,106.519081,-93.312981,0.016075,0.040539,0.114824
2025-09-30T13:00:06.648347,145.511444,49.099236,63.267174,-0.008822,0.080077,0.127489
2025-09-30T13:00:06.840148,-1.206107,46.824429,129.938934,-0.038401,0.061864,0.110846
2025-09-30T13:00:07.050858,-79.526718,2.503817,121.03817,-0.036913,0.018375,0.095502
2025-09-30T13:00:07.245336,-102.480919,-9.122137,-9.580153,-0.009688,-0.010148,0.069522
2025-09-30T13:00:08.205024,-13.305344,-9.030535,13.725191,-0.019214,-0.022597,0.081132
2025-09-30T13:00:08.406521,-25.473282,25.083969,-51.015266,0.010554,-0.019241,0.051661
2025-09-30T13:00:08.606396,32.770992,35.175571,-94.595421,0.049226,0.00046,0.082945
2025-09-30T13:00:08.794725,54.893131,46.740459,-31.671755,0.013531,0.031365,0.135392
2025-09-30T13:00:09.003703,69.312981,23.603054,75.137405,-0.03832,0.041513,0.154822
2025-09-30T13:00:09.198184,-40.053436,-32.854961,95.786263,-0.032285,0.011366,0.099047
2025-09-30T13:00:09.408004,-72.671753,-10.061069,26.778625,-0.019755,-0.000595,0.066437
2025-09-30T13:00:10.449895,-4.08397,11.412213,9.274809,-0.027116,-0.041161,0.074691
2025-09-30T13:00:10.655834,-41.793892,15.343512,-85.427483,0.002625,-0.033936,0.067276
2025-09-30T13:00:10.850873,-2.351145,11.625955,-130.931305,0.047386,-0.017482,0.069901
2025-09-30T13:00:11.060478,123.625954,69.198471,-111.328247,0.026277,0.045816,0.132712
2025-09-30T13:00:11.253445,117.854965,75.770996,92.435112,-0.028523,0.057669,0.124864
2025-09-30T13:00:11.464779,-7.519084,63.396946,167.595413,-0.043137,0.041188,0.1063
2025-09-30T13:00:11.659364,-144.335876,20.938931,77.916031,-0.026521,-0.007469,0.078209
2025-09-30T13:00:11.850875,-94.381676,-4.442748,-70.145035,0.029498,-0.023842,0.065436
2025-09-30T13:00:12.809588,-51.717556,-24.015266,-8.022901,-0.016291,-0.029768,0.070388
2025-09-30T13:00:13.015270,-59.503819,22.396946,-87.343513,0.019079,-0.020838,0.05204
2025-09-30T13:00:13.222029,50.045803,92.244278,-118.824425,0.025087,0.01161,0.105163
2025-09-30T13:00:13.418440,138.748093,46.038166,29.87023,-0.014911,0.052663,0.12527
2025-09-30T13:00:13.612424,64.786263,47.213741,117.664124,-0.031636,0.073257,0.123322
2025-09-30T13:00:13.823017,-63.061069,-9.610687,121.167938,-0.040999,0.024112,0.098154
2025-09-30T13:00:14.017885,-128.320618,-4.793893,9.366412,-0.011907,-0.013748,0.073446
2025-09-30T13:00:14.976050,-38.870228,-6.114504,-30.229008,0.010852,-0.018213,0.040025
2025-09-30T13:00:15.169830,15.038168,47.572517,-100.198471,0.044057,0.018808,0.083811
2025-09-30T13:00:15.379336,142.877869,71.030533,-43.809162,0.007144,0.065436,0.179178
2025-09-30T13:00:15.580360,23.61832,34.854961,136.038162,-0.030499,0.035018,0.132848
2025-09-30T13:00:15.772303,-74.488548,-3.030534,97.122139,-0.059645,0.010717,0.083026
2025-09-30T13:00:15.978747,-101.32061,0.78626,-17.832062,0.009066,-0.014586,0.059374
2025-09-30T13:00:17.137626,-28.938931,16.549618,-48.213741,-0.004059,-0.017861,0.055369
2025-09-30T13:00:17.331903,-10.664123,45.015266,-100.740456,0.025953,-0.00893,0.08944
2025-09-30T13:00:17.526261,128.343506,34.854961,-54.763359,0.016724,0.036507,0.128274
2025-09-30T13:00:17.734125,66.916031,31.145039,81.595421,-0.027549,0.059942,0.149437
2025-09-30T13:00:17.932336,-14.007633,-3.679389,111.893127,-0.021406,0.040918,0.115284
2025-09-30T13:00:18.138982,-97.244278,11.984733,53.473282,-0.024058,0.002652,0.078615
2025-09-30T13:00:18.336552,-60.862595,0.992366,-37.114502,0.013369,-0.012178,0.061269
2025-09-30T13:00:19.287076,-33.038166,-3.366412,-44.664124,-0.003356,-0.02809,0.067601
2025-09-30T13:00:19.486708,-20.167938,37.335876,-92.160309,0.016833,-0.007117,0.076883
2025-09-30T13:00:19.692116,106.580154,69.198471,-59.67939,0.01621,0.035722,0.107978
2025-09-30T13:00:19.884640,118.39695,63.519085,39.488548,-0.009174,0.078832,0.123187
2025-09-30T13:00:20.078367,14.091603,30.526718,127.809158,-0.033422,0.070632,0.122158
2025-09-30T13:00:20.288758,-86.778625,-18.908398,105.427483,-0.025574,0.025384,0.095691
2025-09-30T13:00:20.497875,-94.572517,-7,6.564886,-0.009851,-0.004168,0.082269
2025-09-30T13:00:21.550364,-24.389313,-9.740458,1.221374,-0.024302,-0.034288,0.081782
2025-09-30T13:00:21.744455,-29.48855,47.259541,-91.335876,-0.006738,-0.016562,0.05499
2025-09-30T13:00:21.943467,105.221375,111.977097,-59.870228,0.002165,0.025059,0.1086
2025-09-30T13:00:22.150508,116.053436,26.145039,40.34351,-0.020513,0.073149,0.138477
2025-09-30T13:00:22.344570,31.236641,23.755726,144.938934,-0.043976,0.074042,0.123917
2025-09-30T13:00:22.550387,-87.015266,-68.786263,123.709923,-0.017157,0.022272,0.098181
2025-09-30T13:00:22.751280,-155.053436,20.641222,-3.045802,0.003816,-0.016589,0.060971
2025-09-30T13:00:23.707430,-26.877863,23.603054,1.641221,-0.0292,-0.021325,0.052338
2025-09-30T13:00:23.903778,41.755726,40.030533,-97.427483,-0.001191,0.000433,0.067195
2025-09-30T13:00:24.094746,95.656487,8.748092,14.847328,0.0233,0.064489,0.153929
2025-09-30T13:00:24.304766,96.32061,-34.793892,88.160309,-0.015074,0.072391,0.145756
2025-09-30T13:00:24.499230,-60.633587,-35.664124,119.488548,-0.014965,0.024085,0.097667
2025-09-30T13:00:24.709766,-112.076332,5.274809,34.862595,-0.00479,-0.004844,0.064705
2025-09-30T13:00:24.905803,-40.625954,76.946564,-59.549618,0.01621,-0.021135,0.084921
2025-09-30T13:00:25.959228,-29.236641,77.549622,2.801527,-0.045356,-0.022597,0.050335
2025-09-30T13:00:26.165421,26.19084,39.801525,-46.709923,0.000758,0.008687,0.072066
2025-09-30T13:00:26.361098,141.328247,27.015266,-4.526718,-0.007171,0.05932,0.138585
2025-09-30T13:00:26.569615,68.67939,-70.412216,108.557251,-0.013991,0.078155,0.137773
2025-09-30T13:00:26.767162,-19.641222,-54.137405,114.458015,-0.00295,0.039619,0.103188
2025-09-30T13:00:26.963943,-120.007637,-11.931297,46.519085,0.0023,0.000271,0.072175
2025-09-30T13:00:28.315803,-28.832062,-7.625954,13.106871,-0.003653,-0.026115,0.060051
2025-09-30T13:00:28.509697,-32.106869,-73.67939,-87.580154,0.064381,-0.003329,0.048008
2025-09-30T13:00:28.718479,69.381676,-33.206108,-127.664124,0.079887,0.050119,0.118532
2025-09-30T13:00:28.916914,79.885498,143.587784,-0.717557,-0.00682,0.051093,0.128031
2025-09-30T13:00:29.123003,-16.503817,50.801525,112.778625,-0.051391,0.028713,0.116232
2025-09-30T13:00:29.316962,-87.816795,-4.236641,45.374046,-0.015994,0.008173,0.086626
2025-09-30T13:00:34.084499,-17.519083,5.78626,-2.480916,-0.026683,-0.023246,0.076071
2025-09-30T13:00:34.278581,-18.099237,7.89313,-70.809158,0.008579,-0.013044,0.057859
2025-09-30T13:00:34.490537,62.755726,34.519085,-102,0.03583,0.017807,0.097613
2025-09-30T13:00:34.691596,114.465652,40.763359,-3.709924,0.008497,0.068413,0.148138
2025-09-30T13:00:34.892539,43.9771,15.183207,130.114502,-0.045762,0.061458,0.129221
2025-09-30T13:00:35.088938,-74.709923,-1.396947,119.297707,-0.04081,0.017347,0.084542
2025-09-30T13:00:35.283275,-118.053436,10.38168,-36.541985,0.008958,-0.011041,0.049686
2025-09-30T13:01:07.818477,-1.740458,0.152672,-1.274809,0.005385,-0.02238,0.096882
2025-09-30T13:01:08.025019,1.40458,-0.274809,-1.778626,0.005115,-0.020973,0.085949
2025-09-30T13:01:08.223208,-0.709924,-0.305344,-2.854962,-0.001434,-0.006387,0.062297
2025-09-30T13:01:08.424706,38.007633,12.572519,4.450382,-0.009824,0.021704,0.112876
2025-09-30T13:01:08.621860,67.60305,25.29771,-7.450382,-0.034829,0.016724,0.177933
2025-09-30T13:01:08.816249,4.603054,-33.221375,-44.839695,0.004709,0.028145,0.134065
2025-09-30T13:01:09.023213,-55.893131,-33.748093,-41.633587,0.022001,0.006738,0.037725
2025-09-30T13:01:10.579314,-3.137405,10.251908,-3.40458,-0.014289,0.003383,0.064814
2025-09-30T13:01:10.772961,50.938931,-18.480917,12.396947,-0.02054,0.003193,0.168705
2025-09-30T13:01:10.982428,65.28244,32.160305,-8.503817,-0.018483,-0.00571,0.168001
2025-09-30T13:01:11.175774,-30.557251,-15.541985,-57.633587,0.013612,0.001948,0.085733
2025-09-30T13:01:12.826041,-12.389313,2.038168,-6.206107,-0.000974,-0.00682,0.072364
2025-09-30T13:01:13.034481,51.259541,-9.709924,-0.038168,-0.008037,0.004411,0.15374
2025-09-30T13:01:13.229246,56.34351,47.167938,-12.40458,-0.015236,0.000568,0.154416
2025-09-30T13:01:13.438048,-27.854961,-14.40458,-35.832062,0.009824,-0.002192,0.09488
2025-09-30T13:01:14.989469,0.80916,4.854962,3.381679,-0.002787,-0.004925,0.057426
2025-09-30T13:01:15.184297,64.267174,9.862596,2.167939,-0.014045,0.02736,0.161939
2025-09-30T13:01:15.386213,75.992363,42.427483,-24.175573,-0.005845,0.015371,0.162345
2025-09-30T13:01:15.597109,-37.648853,-23.160305,-35.015266,0.012854,0.014181,0.076044
2025-09-30T13:01:16.950241,-4.625954,2.80916,-4.351145,-0.007063,-0.003247,0.057696
2025-09-30T13:01:17.143702,62.106869,-4.526718,12.091603,-0.016941,0.018132,0.137935
2025-09-30T13:01:17.337274,75.28244,25.335878,-8.450381,-0.024031,0.018727,0.171655
2025-09-30T13:01:17.549634,-57.587788,-38.65649,-56.106869,0.022597,0.016833,0.072364
2025-09-30T13:01:18.904344,-6.236641,-4.091603,3.908397,-0.003464,-0.017888,0.040377
2025-09-30T13:01:19.102473,9.992367,-1.21374,-10.458015,0.000162,0.002192,0.125676
2025-09-30T13:01:19.306032,102.305344,24.969465,-5.51145,-0.046466,0.00414,0.187648
2025-09-30T13:01:19.504205,25.114504,-25.007633,-29,0.013829,0.021352,0.092119
2025-09-30T13:01:20.966549,-8.549619,-1.954198,-3.526718,-0.006766,-0.007144,0.039132
2025-09-30T13:01:21.166016,42.152672,33.083969,-0.519084,-0.011853,0.035641,0.173847
2025-09-30T13:01:21.364562,84.465652,32.671757,-25.259542,-0.02487,0.017753,0.154497
2025-09-30T13:01:21.566803,-24.076336,-34.419846,-36.931297,0.007983,0.016318,0.103025
2025-09-30T13:01:23.018531,-14.931297,-7.839694,4.320611,-0.005656,-0.01345,0.049821
2025-09-30T13:01:23.218634,27.259542,20.992367,-8.450381,-0.018781,0.046303,0.130683
2025-09-30T13:01:23.418664,154.541992,5.725191,-14.488549,-0.022245,0.028632,0.177013
2025-09-30T13:01:23.619488,-33.557251,-44.946564,-52.206108,0.017915,0.023003,0.091849
2025-09-30T13:01:25.075760,2.992366,3.290076,-5.80916,-0.00387,0.000893,0.056018
2025-09-30T13:01:25.269872,77.351143,10.076336,-12.839695,-0.000595,0.042406,0.137069
2025-09-30T13:01:25.463652,72.061066,31.564886,-40.206108,-0.021406,0.040133,0.175552
2025-09-30T13:01:25.673381,-52.961834,-47.236641,-38.587788,0.014992,0.023896,0.078994
2025-09-30T13:01:27.127750,-3.610687,4.335878,-2.030534,-0.001082,-0.002463,0.048847
2025-09-30T13:01:27.334911,59.793892,0.671756,9.083969,-0.01326,0.041973,0.152847
2025-09-30T13:01:27.532029,131.541992,25.938931,-20.251909,-0.0351,0.031663,0.155634
2025-09-30T13:01:27.724933,-35.053436,-24.068703,-37.923664,0.011474,0.027982,0.090631
2025-09-30T13:01:29.182906,-11.358779,1.396947,-5.08397,-0.010013,0.006495,0.057886
2025-09-30T13:01:29.374339,79.755722,-5.21374,-3.656489,-0.016345,0.025736,0.168759
2025-09-30T13:01:29.584924,79.061066,52.045803,-16.977098,-0.011231,0.015182,0.148408
2025-09-30T13:01:29.778918,-45.671757,-31.877863,-48.816795,0.013125,0.01096,0.095691
2025-09-30T13:01:31.134450,2.770992,-1.374046,-0.19084,-0.001921,-0.033286,0.035695
2025-09-30T13:01:31.334496,11.480916,17.480917,-4.923664,-0.02146,0.030039,0.100157
2025-09-30T13:01:31.539824,132.198471,9.755725,-3.625954,-0.034721,0.019945,0.182858
2025-09-30T13:01:31.733778,24.167938,-9.625955,-16.740458,0.002977,0.020215,0.126001
2025-09-30T13:01:33.189829,-5,-7.977099,-2.251908,-0.008822,0.002923,0.058075
2025-09-30T13:01:33.397956,48.931297,-3.236641,1.603053,-0.017509,0.027739,0.159341
2025-09-30T13:01:33.592704,50.229008,47.67939,-12.916031,-0.037643,0.02284,0.168949
2025-09-30T13:01:33.804111,-16.427481,-32.496181,-43.67939,0.023815,0.019945,0.090793
2025-09-30T13:01:35.147580,-3.679389,-2.343511,7.671756,-0.009499,-0.013179,0.042677
2025-09-30T13:01:35.358893,47.862595,16.167938,-10.061069,-0.000406,0.036615,0.146785
2025-09-30T13:01:35.553729,142.061066,35.671757,-25.656488,-0.014072,0.025249,0.175362
2025-09-30T13:01:35.748598,-46.160305,-26.419847,-38.114502,0.013423,0.012124,0.079292
2025-09-30T13:01:37.103444,-0.335878,-7.312977,0.045802,-0.011366,-0.013883,0.054287
2025-09-30T13:01:37.314977,20.473282,3.29771,-8.244275,0.002869,0.027603,0.127841
2025-09-30T13:01:37.506265,105.465652,1.969466,-19.480917,-0.019512,0.029389,0.181857
2025-09-30T13:01:37.699562,-9.610687,-22.358778,-45.068703,0.014857,0.019214,0.107085
2025-09-30T13:01:39.055864,-2.648855,7.648855,7.572519,-0.001353,-0.023652,0.050985
2025-09-30T13:01:39.266032,18.564886,-5.89313,-11.885496,-0.008525,0.023977,0.074935
2025-09-30T13:01:39.460476,95.167938,-6.045802,-17.687023,-0.025871,0.029579,0.178772
2025-09-30T13:01:39.672119,41.251907,38.244274,-21.083969,0.009418,0.0351,0.137232
2025-09-30T13:01:39.868018,-99.053436,-30.38168,-50.770992,0.023246,-0.010635,0.048468
2025-09-30T13:01:41.121536,-2.770992,10.045801,2.526718,-0.012313,0.002165,0.049578
2025-09-30T13:01:41.320894,80.564888,-18.854961,9.099236,0.00295,0.040837,0.164294
2025-09-30T13:01:41.515568,112.778625,47.160305,-41.221375,-0.013639,0.030228,0.166702
2025-09-30T13:01:41.728138,-49.65649,-44.778625,-56.755726,0.016887,0.019755,0.08078
2025-09-30T13:01:43.082706,-7.282443,6.183206,0.78626,-0.017617,-0.00092,0.039944
2025-09-30T13:01:43.282704,38.847328,21.007633,7.671756,-0.002354,0.047846,0.149112
2025-09-30T13:01:43.475976,84.290077,44.274811,-38.534351,-0.019809,0.040837,0.154443
2025-09-30T13:01:43.685773,-31.412214,-37.938931,-48.854961,-0.001488,0.026386,0.107247
2025-09-30T13:01:45.028250,0.900763,8.19084,11,-0.009824,-0.01234,0.040377
2025-09-30T13:01:45.238316,20.694656,16.664122,-13.152672,-0.026791,0.033963,0.102078
2025-09-30T13:01:45.435753,96.137405,-6.694656,-21.435114,-0.013531,0.045004,0.172575
2025-09-30T13:01:45.642223,39.816795,9.366412,-32.65649,-0.014018,0.048225,0.138666
2025-09-30T13:01:45.836753,-80.572517,-35.35878,-54.458015,0.019836,-0.003924,0.058211
2025-09-30T13:01:47.195462,-0.282443,1.389313,4.076336,-0.001326,-0.015615,0.037752
2025-09-30T13:01:47.390905,27.572519,-4.29771,4.656488,-0.013856,0.02441,0.116448
2025-09-30T13:01:47.597312,147.511444,4.358778,-28.091602,-0.014262,0.048631,0.168813
2025-09-30T13:01:47.794135,63.938931,22.160305,-16.007633,-0.018916,0.035668,0.146325
2025-09-30T13:01:47.989276,-114.847328,-33.992367,-60.992367,0.01529,0.002409,0.061972
2025-09-30T13:01:49.345067,-16.908398,-1.389313,5.877862,-0.005818,-0.01483,0.05407
2025-09-30T13:01:49.540925,33.351147,36.938931,7.778626,-0.016454,0.024248,0.124296
2025-09-30T13:01:49.749187,67.213737,-21.213741,-19.687023,-0.02008,0.020838,0.138233
2025-09-30T13:01:49.943138,24.259542,15.900764,-30.48855,-0.009228,0.024843,0.151088
2025-09-30T13:01:50.152388,-58.305344,-47.312977,-47.870228,0.024248,-0.001705,0.05886
2025-09-30T13:01:51.398728,1.290076,12.587787,12.40458,0.000866,-0.021974,0.038726
2025-09-30T13:01:51.608877,15.274809,19.832062,6.61832,-0.023842,0.022651,0.106597
2025-09-30T13:01:51.805301,64.610687,3.076336,-3.656489,-0.006793,0.022245,0.153307
2025-09-30T13:01:52.013056,47.396946,49.099236,-30.007633,-0.028199,0.015642,0.148084
2025-09-30T13:01:52.208123,-47.793892,-33.175571,-61.816795,0.015425,0.011447,0.088249
2025-09-30T13:01:53.662489,4.015267,8,5.076336,-0.007469,-0.016345,0.057372
2025-09-30T13:01:53.863105,-3.534351,22.824427,-16.229008,-0.015019,0.01391,0.082945
2025-09-30T13:01:54.067765,97.473282,-9.633588,-0.145038,-0.012557,0.035262,0.165187
2025-09-30T13:01:54.264781,66.96183,41.213741,-39.786259,-0.026683,0.037535,0.154633
2025-09-30T13:01:55.819060,-10.320611,2.564885,5.175572,-0.005548,-0.021325,0.047629
2025-09-30T13:01:56.013336,6.152672,46.832062,-10.221375,-0.030688,0.02487,0.075476
2025-09-30T13:01:56.222441,83.877861,3.251908,1.114504,-0.032285,0.048225,0.182019
2025-09-30T13:01:56.416680,86.335876,23.366413,-31.274809,-0.024789,0.048468,0.150655
2025-09-30T13:01:56.626396,-67.335876,-56.465649,-58.877861,0.018105,0.019674,0.061269
2025-09-30T13:01:57.982623,2.793893,9.053435,6.580153,-0.011988,-0.00092,0.046953
2025-09-30T13:01:58.176948,76.351143,22.343512,9.083969,-0.033855,0.068494,0.167406
2025-09-30T13:01:58.382512,148.92366,-3.946565,-25.145039,-0.028983,0.047521,0.154146
2025-09-30T13:01:58.583538,-76.412216,-28.007633,-49.496181,0.006955,0.016237,0.091713
2025-09-30T13:01:59.918765,-12.931297,-3.862595,7.923664,-0.006684,-0.01713,0.033584
2025-09-30T13:02:00.125044,-0.038168,14.091603,-12.824428,-0.020378,0.022543,0.117152
2025-09-30T13:02:00.330553,88.60305,-7.007634,-30.519083,-0.028063,0.023652,0.173874
2025-09-30T13:02:00.527197,-0.587786,-20.641222,-41.916031,-0.008795,0.029498,0.136095
2025-09-30T13:02:00.726348,-41.908398,-24.106871,-45.503819,0.019376,0.00368,0.058698
2025-09-30T13:02:02.088137,1.625954,9.580153,2.564885,-0.010121,-0.007171,0.043272
2025-09-30T13:02:02.288285,49.030533,37.687023,-18.076336,-0.020973,0.044463,0.125703
2025-09-30T13:02:02.489084,64.244278,30.61832,-23.603054,-0.035993,0.023896,0.170653
2025-09-30T13:02:02.693406,-22.648855,-41.67939,-49.610687,-0.002381,0.026927,0.100048
2025-09-30T13:02:02.890194,-87.259544,-45.030533,-42.824429,0.017347,-0.008416,0.042515
2025-09-30T13:02:04.147581,4.755725,4.015267,15.244275,-0.010446,-0.017103,0.03491
2025-09-30T13:02:04.343719,28.87023,34.038166,-16.80916,-0.031311,0.041324,0.100617
2025-09-30T13:02:04.550111,95.740456,35.38168,-10.778625,-0.041811,0.03288,0.18662
2025-09-30T13:02:04.744765,1.656489,-21.610687,-42.64122,-0.011393,0.039484,0.129465
2025-09-30T13:02:04.942248,-70.694656,-64.839691,-64.137405,0.02644,-0.00295,0.035478
2025-09-30T13:02:06.303359,-5.061069,-3.022901,-0.007634,-0.015588,0.016102,0.050308
2025-09-30T13:02:06.503960,69.625954,13.610687,-9.38168,-0.022949,0.042244,0.15328
2025-09-30T13:02:06.705021,82.480919,9.633588,-43.900764,-0.026061,0.042948,0.160289
2025-09-30T13:02:06.909049,-77.328247,-11.549619,-51.312977,0.006089,0.017834,0.078642
2025-09-30T13:02:08.257053,38.732826,8.664123,15.389313,-0.009147,-0.005142,0.053908
2025-09-30T13:02:08.451242,14.580153,25.694656,-7.053435,-0.023598,0.025357,0.087329
2025-09-30T13:02:08.662078,80.152672,38.9771,-12.633588,-0.022029,0.044382,0.211328
2025-09-30T13:02:08.853125,14.106871,-5.961832,-29.694656,0.001488,0.026737,0.111902
2025-09-30T13:02:10.209775,2.358779,-6.343512,11.320611,-0.01207,-0.017103,0.040025
2025-09-30T13:02:10.420284,-1.259542,1.80916,-2.793893,-0.02598,0.036615,0.104297
2025-09-30T13:02:10.620592,116.816795,21.893129,-18.290077,-0.049469,0.02441,0.188271
2025-09-30T13:02:10.821824,19.526718,-35.847328,-25.557251,-0.000189,0.025953,0.107058
2025-09-30T13:02:12.263929,18.839695,6.290076,-3.19084,-0.003058,-0.017482,0.043949
2025-09-30T13:02:12.473332,30.908398,21.076336,-14.625955,-0.02533,0.02238,0.12094
2025-09-30T13:02:12.667056,140.251907,-11.473283,-1.824427,-0.035641,0.02736,0.165457
2025-09-30T13:02:12.862246,24.946566,-26.603054,-35.648853,-0.004709,0.019918,0.123836
2025-09-30T13:02:13.077262,-72.671753,-53.687023,-64.946564,0.034775,-0.009363,0.050552
2025-09-30T13:02:14.331875,8.877863,14.068703,4.145038,-0.008985,-0.00387,0.04606
2025-09-30T13:02:14.528378,36.251907,23.030535,-7.908397,-0.017157,0.02552,0.141237
2025-09-30T13:02:14.734407,95.28244,26.358778,-9.412213,-0.029498,0.022949,0.167595
2025-09-30T13:02:14.935330,3.961832,-27.786259,-49.847328,0.003572,0.015696,0.116556
2025-09-30T13:02:16.179562,20.656488,-4.816794,28.435114,-0.005845,-0.016833,0.044788
2025-09-30T13:02:16.374158,28.099237,16.832062,-3.648855,-0.024112,0.024681,0.099859
2025-09-30T13:02:16.583891,91.534348,26.022902,-11.198473,-0.029849,0.041351,0.185186
2025-09-30T13:02:16.778512,19.80916,-21.595419,-34.374046,-0.005575,0.037995,0.126217
2025-09-30T13:02:16.987068,-62.526718,-33.664124,-66.03817,0.034342,-0.00617,0.044761
2025-09-30T13:02:18.137018,3.916031,-5.389313,28.969465,-0.005277,-0.016806,0.048116
2025-09-30T13:02:18.332103,24.480917,31.480917,-16.595419,-0.018619,0.028036,0.085408
2025-09-30T13:02:18.540997,110.977097,51.580154,-2.908397,-0.03445,0.054151,0.186945
