acc_x,acc_y,acc_z,gyro_x,gyro_y,gyro_z,label
0.04967141530112327,0.2324083969394795,-0.14153707420504144,1.0250492850345876,0.11788936801741418,-0.06304419771675226,wave
0.2398281537923889,0.16149177195836836,-0.04206453227653591,1.0019396839887271,0.12803922631841172,0.045893097352738804,wave
0.5554864058140071,0.13230779996940412,-0.03427145165267695,0.8033162319655404,0.15415256215876386,0.10610780985063167,wave
0.847985536244289,0.2611676288840868,-0.0802277269221619,0.741574719813828,0.15269010260174515,0.05162326302755735,wave
0.8317274255330125,0.30309995224959513,-0.016128571166600915,0.5476998156403933,0.031116531602145447,-0.07596849829770068,wave
0.9352541573417426,0.29312801191161986,0.040405085681453845,0.2130924448283959,0.053108748004243866,-0.02421170364331257,wave
1.157407497751427,0.11607824767773615,0.18861859012105303,0.218629028686131,0.125751763360433,0.06334555745933114,wave
1.0516713850971144,0.16907876241487854,0.017457781283183895,-0.17513764186513558,0.12568929754561045,-0.03538347328093904,wave
0.8396518677795048,0.2331263431403564,0.02575503907227644,-0.5816686399611,0.1257523843153024,0.022190971407311424,wave
0.7945340014339122,0.29755451271223593,-0.007444591576616722,-0.6066455293979336,0.29263657453273606,0.03873170267146684,wave
0.4991931319293028,0.152082576215471,-0.19187712152990416,-0.9355562719145725,0.12854452553465837,-0.04634652357890415,wave
0.2685352426665952,0.18143410233361829,-0.002651387544921688,-0.8703472866364235,0.15677828200902996,-0.002976267803090004,wave
0.08826644713731664,0.08936650259939719,0.006023020994102644,-0.8820858348495959,0.14770008817466013,-0.16206336700345364,wave
-0.3824866531671517,0.08037933759193293,0.24632421124852863,-1.0636273888262364,0.1325695625652899,-0.051219382066714496,wave
-0.6063755223688613,0.28125258223941985,-0.019236096478112252,-0.8046312549779869,0.08423653776798272,-0.012628407569658016,wave
-0.7044571482318854,0.33562400285708227,0.03015473423336125,-0.7201678656754849,0.13794846102466338,-0.062389159098242476,wave
-0.9214553666303981,0.19279898784196664,-0.0034711769705243313,-0.489910644122721,0.06135873927312141,0.08162056519658177,wave
-0.9070436887902328,0.30035328978920245,-0.11686780376195322,-0.1556857561559134,0.08815906966299956,-0.07150706889803164,wave
-1.0861815205013192,0.23616360250476343,0.11428228145150206,-0.12056183750796949,0.07573182260854483,-0.02200222433484919,wave
-1.1284121535479794,0.13548802453948758,0.07519330326867742,0.08422627859762943,0.10409370696931614,0.0065370288643045674,wave
-0.7678477461236575,0.2361395605508414,0.0791031947043047,0.31583190015984064,0.21573292833367544,0.07206366445330578,wave
-0.8044091125166835,0.35380365664659696,-0.09093874547947389,0.5419087733621896,0.006636740370412592,-0.07179310755897197,wave
-0.5913577100224239,0.19641739608900485,0.14027943109360994,0.7937034509265459,0.13431300951872568,0.058158187607747984,wave
-0.5177418235007203,0.35646436558140066,-0.1401851062792281,0.961031954827686,0.019364206440517423,0.0005116530509793525,wave
-0.1823154341370249,-0.06197451040897445,0.05868570938002703,1.019459093756248,0.07640340671052834,-0.04907543255239755,wave
0.13896942065549187,0.2821902504375224,0.21904556258099786,1.0745083387268486,0.15444752984836832,0.02310517371316354,wave
0.260167647137143,0.20870470682381714,-0.09905363251306884,0.9282169465338128,0.10321400095477315,0.009952984778673502,wave
0.6356803323257822,0.17009926495341327,-0.05662977296027719,0.946767029583689,0.0461127611035347,-0.030010843857939735,wave
0.721767613476149,0.20917607765355023,0.009965136508764122,0.5970241185349381,0.06423481453700158,0.003490104249500946,wave
0.8852432480364846,0.00124310853991072,-0.05034756541161992,0.676800259781356,0.1339798874467338,-0.01926567984308801,wave
0.9270111221915104,0.1780328112162488,-0.15506634310661327,0.2221666298098804,0.06348166841414317,0.005675867262562403,wave
1.180606931400092,0.23571125715117466,0.006856297480602733,-0.18173878154930934,0.11082292947909875,0.03310653372605234,wave
0.9371186995759673,0.34778940447415163,-0.10623037137261049,-0.45245430422741806,0.1022785919951907,0.07930084080726761,wave
0.7144011617013659,0.14817297817263528,0.04735924306351816,-0.523869418597851,0.06741998261970915,-0.06189077494134246,wave
0.7304828865181081,0.11915063971068124,-0.09194242342338033,-0.7837922369017188,0.2071972044662663,0.10665166873281334,wave
0.3117993741204562,0.14982429564154637,0.15499344050175395,-0.8295688184932097,0.13169595111590057,-0.0976043899761251,wave
0.2120449882018492,0.29154021177020745,-0.07832532923362372,-0.9342353945337106,-0.0012571293328803579,-0.007589254751779167,wave
-0.26003723236868986,0.23287511096596847,-0.03220615162056756,-1.0052282840160236,0.10932271573847138,0.029415860324228826,wave
-0.4479268229134622,0.14702397962329614,0.08135172173696698,-1.0337351188175097,0.0669106767615806,0.014049593386751633,wave
-0.5258487776236356,0.25132674331133564,-0.12308643164339553,-0.9895728273604276,0.1426216667398112,-0.03113497599102969,wave
-0.6664313390757732,0.20970775493480404,0.022745993460412943,-0.7169523854680203,0.06037396307836497,-0.010406112517863761,wave
-0.8694624782540025,0.29686449905328893,0.13071427542824282,-0.37689841080848907,0.09426317792665506,-0.024650046732941643,wave
-0.9864927404206476,0.12979469061226478,-0.16074832345612278,-0.2011115595432944,0.12524936394902286,-0.029468237847210577,wave
-1.0295965857596168,0.16723378534022318,0.018463385853230423,-0.09252230029954508,0.14328775970850607,0.042480104851051234,wave
-1.1065200520734035,0.16078918468678424,0.025988279424842355,0.30184567921614996,0.03998517964721119,0.017850774298252367,wave
-0.927127183844818,0.053648505186788153,0.07818228717773104,0.5569243062834073,0.08327493820795259,-0.03464547976303271,wave
-0.7417464276994659,0.2296120277064576,-0.1236950710878082,0.6299636064776136,0.0762527344419522,0.044979993771662535,wave
-0.38500532938204807,0.22610552721798893,-0.13204566130842763,0.8866912147179412,0.06733353837131441,0.015364976043830468,wave
-0.21929275495266243,0.2005113456642461,0.05219415656168977,0.9731157348836291,0.18827271201405485,0.040643105941948005,wave
-0.1763040155362739,0.1765412866624853,0.029698467323318607,0.8857029702169377,0.12024908554804778,0.03148144209618061,wave
-0.08289950109220723,0.23109075655980046,-0.15944276587943673,0.9937320902726828,0.14630887737658207,0.004329489373644996,wave
0.1976364798898104,0.3475356216949552,-0.05993750229537729,1.0628090950891533,0.19547083202350654,-0.007783861769603974,wave
0.565446912516264,0.28576596232020196,0.0005243699718183166,0.772746099489835,0.030071621309042937,0.05838910308299037,wave
0.7567195771468329,0.1840061470036573,0.004698059376474206,0.7687540016495121,0.12814846183452855,0.012721042165060656,wave
0.8530526036089313,0.19809837920973114,-0.04500654714792437,0.4653668064732811,0.06746787154390865,0.01688013310376011,wave
0.9704005913675388,0.09974706353621912,0.062284993234749876,0.20524030340479826,0.0756437308117652,-0.02059384830612337,wave
1.1272527057795303,0.19814868640076103,-0.10676204293825944,0.02134854157619955,0.07038030378805654,-0.024380311203624678,wave
0.9157707732982406,0.17113413610798617,-0.01423794850212935,-0.32604516619825175,0.056800461516009204,-0.021627909390981047,wave
0.9413090444900039,0.23227185603380895,0.012029563171189887,-0.5179032207755533,0.10242608139724135,0.019722607118914843,wave
0.7200587318319263,0.11727690564476771,0.051443883405874906,-0.7920886795202015,0.05845249417944812,-0.02104922404101315,wave
0.523766780887827,0.25193465142411725,0.07116148780888898,-0.6416155916002014,0.11352284128899195,0.014488742844820646,wave
0.42498590322233987,0.35327389130025777,-0.11246420918378693,-0.9455293918134958,0.09748809452754316,0.10377003993227195,wave
0.14661185487951622,0.18912398515431425,-0.15341141707356223,-1.067917943549595,0.08805259765667951,0.04355623517158462,wave
-0.10980766510130802,0.24017117220989415,0.1277676821898509,-0.9601611659176432,0.05462181689792011,-0.016301176608392056,wave
-0.30333585840212507,0.26901439917111125,0.033231401197959164,-0.9122016728715021,0.07116143347158337,0.060060696108197247,wave
-0.6461280111445122,0.15987795281141637,-0.07484865365565536,-0.7835429183224569,0.1377695612912878,-0.02040376865107757,wave
-0.7519769574674593,0.22240924818104169,0.1551151975522523,-0.5106999901178275,0.12504585938121904,-0.1019062267588927,wave
-0.9694950977091058,0.2012592400781795,0.011567463429285867,-0.26961428341657767,0.05112223776007245,-0.05040431554587021,wave
-0.9629624777003539,0.20976760985488319,0.11792971840638265,-0.1490731406687352,0.1049666152714613,-0.09353959605129279,wave
-1.0001960888512187,0.12269902161445335,0.006751848141010895,0.1020180709689104,0.13756935616858945,-0.017575674202065433,wave
-0.9047130265165411,0.20245101742589428,0.2060747924881987,0.3772781734072285,0.01652973594393141,0.000920918959477585,wave
-0.7223157799243386,0.249799829124545,0.17553408424432046,0.39329768538517484,0.12716800961899677,0.08382186561376415,wave
-0.6799325988145635,0.3451143607795042,-0.02489641484790735,0.6498945156481012,0.06686881205270767,0.016346368688208133,wave
-0.16602827731082856,0.2959270826085207,0.09715709509543555,1.0636041840904742,0.12852993342965796,-0.010955026440443213,wave
-0.22847889983447683,0.41531824575115567,0.06453759495851476,1.1562867851733745,0.06183704217287416,0.04147027905917446,wave
0.0064583004057320315,0.12326524371119506,0.13686315575323488,0.9668864098676083,0.00975589496677405,-0.11055676545039426,wave
0.4910780922293801,0.2872320636720678,-0.09649234605801045,0.9845724536515987,0.018622878105841872,0.011780727905428298,wave
0.6772767998875087,0.21833420057383518,0.06860514599984394,0.8325386373223109,0.1024042473330691,0.038543259694348346,wave
0.8442434641732451,0.4189802933217672,0.10584244868495879,0.9313778827042575,0.1129861250860741,-0.07392931228899208,wave
0.9772471739422403,0.11917017146448486,-0.17587394864231143,0.5167408342658519,0.05478416874477957,0.05718770216034646,wave
0.9859571061297586,0.1160278157819224,-0.11832585126657752,0.14680813588530311,0.1319296229388687,0.016924820374720706,wave
0.9056536758006151,0.1400607354555978,-0.20392321777601008,-0.19157706996772367,0.01692399688655201,-0.020764395695040065,wave
0.9460488778691333,-0.012389572430980683,-0.026940683444455778,-0.5060096864470641,0.09669601006763417,0.031639093305314246,wave
0.7524560834457448,0.1474244978319239,0.07175422557959624,-0.5517702965354473,0.03944919001187717,0.1135346428902198,wave
0.7457403686495643,0.1240867338446302,0.15023570520960283,-0.8370810328975641,0.06740819460989204,0.009093312752924758,wave
0.4191780009673446,0.21503937864762077,0.007409478041977519,-1.0431942388621864,0.1023699335658207,0.012411029315016805,wave
0.10860890902212249,0.23417559757771594,0.1628615545571292,-1.0462164454153178,0.056979331735802385,-0.022968044977012207,wave
-0.09620880414601166,0.38761708392158867,-0.13801014582148916,-1.1061001931117758,0.08077222278850874,-0.04249221847323959,wave
-0.27381507259605664,0.29504238381860504,-0.17033824393551547,-0.7803415835034127,0.15031464046072204,0.04151679082721228,wave
-0.6019073564909454,0.1423096344337597,-0.005554769889661878,-0.7499241291968961,0.07115540652384257,-0.04280419129544336,wave
-0.8225000366319575,0.11015853286516421,0.03840654489393073,-0.6730981543929799,0.1417846056032571,0.0035783118609696235,wave
-0.8622305852238084,0.2491919171506506,-0.0032694748094093114,-0.31454387635183373,0.043514657267119096,-0.023882872338255836,wave
-0.9504312550709513,0.0679766792979358,-0.20674421000398768,-0.21478410319155297,0.12649020889576415,0.023948991287319595,wave
-1.050180533737801,0.3831458765854354,-0.00891200395127884,-0.05407684256117264,0.17207843103289502,0.016683105264347416,wave
-1.0057716835984931,0.31794401207212875,-0.13044695005048532,0.43683999435799753,-0.023582225006364463,0.05187699721289496,wave
-0.8319377692695834,0.15308243478952954,0.06696725488300385,0.5722835726789894,0.060155237226476165,-0.025500819942737354,wave
-0.8404909847532195,0.028686547090912257,0.03665982460968483,0.6146247346650813,0.128853606359027,-0.013493746764668564,wave
-0.6314639294415951,0.3353872374165413,-0.09398797863273553,0.8522848363150276,0.08984773069785038,-0.04893818578911537,wave
-0.3254990060347522,0.18854601547473823,-0.05138669173366936,0.8797330377005534,0.11855729366856545,-0.02221466300380558,wave
-0.021344715171185216,0.3237816311973462,-0.10592135218889516,0.8617200269035664,0.06980074066420898,0.01886502465224261,wave
0.0756988616645352,0.38489560949453455,-0.05227230205190395,0.9076766753889096,0.1469141902987999,-0.03115702632123822,wave
0.16143805149174478,0.31265650295477576,0.10490092258368894,0.8321264024773961,0.07419776358913131,-0.027773855958012735,wave
0.5776781440145039,0.17311113094451697,-0.07043436905427593,0.7737313788256561,0.10480603884704917,-0.03186935636532589,wave
0.8312463364839815,0.08934740912583297,-0.14084612963635598,0.8237135297585116,0.07688623556474788,0.05945082655537759,wave
0.8964862533277161,0.45733598032498607,-0.15566291735239038,0.42345267942733084,0.07827518862838423,0.07102521239949275,wave
1.146347434292467,0.20592184340144884,0.06060099513456396,0.5477657931147717,0.08454139382656803,-0.028537314687473815,wave
0.9221072962903306,0.20139292919129465,-0.12804293524962831,0.08138336765974426,0.11110668858168565,-0.041617778655211435,wave
0.8504624418506819,0.1975874912889997,0.1754794181984365,-0.20403732158682694,0.07606256891682614,0.023570777819320207,wave
0.7087272814825722,0.2198084760767855,-0.20819294078837222,-0.5483740682589564,0.16278780627867606,-0.027611152214048564,wave
0.889882428224234,0.18556395880760576,0.16964563682900383,-0.6022699023204174,0.05526963488902481,0.03164659088777554,wave
0.6109714668459548,0.1426337993119764,0.02110174672026184,-0.8956518875156178,0.09065641779193205,0.010146151042564985,wave
0.30954975093257536,0.1453141058759608,-0.00967131118703924,-0.9368547655461325,0.07801344708629127,-0.0757872057498616,wave
0.09206708261269526,0.19672467297840018,-0.05449190868089498,-0.7419369389234569,0.17234889421768665,0.07737526006650308,wave
-0.30370753343120954,0.1456575228866235,0.03991361143520709,-0.9911651469635304,0.10982773882557874,0.08979388365477609,wave
-0.18930854115587537,0.12871542173228356,-0.0037634702424848366,-0.7860415352738516,0.15159222697343175,-0.030639434524219314,wave
-0.6353062771102654,0.2106430227691897,0.11033018820165215,-0.8317636008817234,0.0257219813481514,-0.01938507799679921,wave
-0.8092327751364663,0.17450227825791448,0.011422764866203965,-0.5756155091718662,0.11335251329346295,0.014293269536245249,wave
-0.8658917596598911,0.35039929885826887,0.01503017614618776,-0.16828499085775717,0.14448153978117187,0.01672283949935125,wave
-0.9472781897755268,-0.06509698083930121,-0.03636122122138559,-0.1587197316864592,0.10411419946377122,0.032927213633641525,wave
-0.9647933809865371,0.3091506851922462,-0.005694562372106746,0.3408447508330713,0.15327401875326757,0.10051022693831749,wave
-0.9934600685603441,0.3246085192497629,0.03078017688920592,0.4755585366679405,0.0741355774949814,-0.00884736137470247,wave
-0.7346846467544303,-0.007339023240814951,-0.17101683926566258,0.5672431242693066,0.170467372009279,-0.03991486222692269,wave
-0.40990808084371283,0.16573124059196515,-0.1348185422105713,0.8646543957735084,0.21494490618096251,-0.06896596140072636,wave
-0.2407250002638768,0.16285591340042085,0.0743264094022715,1.0241722023086945,0.08185807197801705,-0.036546501997095956,wave
0.031441500979433074,0.05924883052821789,0.017086543812794185,1.0539710100449657,0.07772487392996141,-0.0016563486436898549,wave
0.07675559404138674,0.12221833124091247,-0.018398333635267914,0.8347675418342005,0.17266922385588507,0.08972789317588939,wave
0.2763065228535152,0.08894241545341713,0.001843393306539316,0.8542030397635352,0.17897860728653564,-0.02588056495180857,wave
0.5855318384812502,0.3752270443423623,0.03475817053616711,0.7766617583128068,0.0738569986423366,0.011189397581944927,wave
0.7874039736968991,0.2935678393147461,-0.053975968030936156,0.6160464589487291,0.07899065914520714,-0.0008211448036376037,wave
1.023831774862907,0.32715550949941585,-0.07783047254023127,0.466850552877462,0.08591076955697464,0.0594196636724042,wave
0.8179353204429681,0.2721672064043235,0.019584525509768157,0.17736999512670515,0.032777474448286145,0.1263466212936811,wave
1.1483341448952595,0.08709482287827708,-0.09783727776150321,-0.2295574617786912,0.05406740267579009,-0.026543438646016035,wave
0.9226676321918618,0.14754797337202263,0.04082527557144719,-0.3073452693207105,0.049792961662396606,-0.02447197212591111,wave
0.777484147602214,0.24893745612279183,-0.17025836042378406,-0.5110580855937872,0.06161012174479358,0.0522080438534536,wave
0.5470179577817724,0.07778721911080547,0.10291556373256437,-0.7054669135760298,0.09826575563066095,0.03409457448131557,wave
0.26839807193098153,0.2712998430172388,0.0472597482413043,-0.7928907953469567,0.11171073662682604,0.09233536628680168,wave
0.2734756870975651,0.17596746018418652,0.025602973431387566,-0.8981669415361747,0.17752502464070385,0.0291964092662982,wave
-0.05673842326187191,0.16251791924504025,0.09826909839455139,-0.9520273848274927,0.050082297963060456,-0.017964604539352978,wave
-0.4441043079977245,0.2710959968203492,0.1665474444462577,-0.9560723181565339,0.1492161199238292,0.029532741534615464,wave
-0.6750427784169095,0.244426331148604,0.10143700650181305,-1.0041841982434403,0.08930055778872456,0.05543517902914539,wave
-0.7738564670043271,0.16390338341809202,-0.18408742313316453,-0.6293390683480596,0.09752681451737835,0.041024109059868204,wave
-0.7196971538440602,0.3159329803364248,-0.12795769667357015,-0.4417695215245252,0.1337409746083302,0.02536370155536489,wave
-1.000887047318184,0.09189366724001027,-0.06248185776956788,-0.19536305023677747,0.043863898921885074,0.053333734479457696,wave
-1.1498005115124985,0.2615935606944264,0.0026091050210833786,-0.09562328001037723,0.11912048730920254,0.05846477952228364,wave
-0.9832421594452553,0.2593101257968384,0.05176590204691231,0.17642193259020555,0.1083226104106528,0.06910794955187637,wave
-0.8824151199801141,0.169045356068601,-0.07257438131534656,0.623707853643814,0.12462256320040746,0.032435494379482135,wave
-0.9653712148976442,0.2326133022242118,0.018676676447707832,0.7143938347120614,0.11445843219539091,-0.008355904015842719,wave
-0.49614703865572085,0.07488864236146972,-0.07553829323533226,0.9394687738606509,0.22276500699554472,0.007335684321666142,wave
-0.27674803693037636,0.2924027019206901,-0.061151780299194824,0.9701267006520753,0.06811300078743421,0.06032544832541784,wave
0.06962063648134136,0.1815097863557011,-0.14066610968482224,1.0029756139495745,0.07345015224990913,-0.040846783549361804,wave
0.03686733088729012,0.17587639421436702,0.13993554365860023,0.937443729849047,0.14990050549298262,-0.04956961747281536,wave
0.21432070267677128,0.2352055396514297,0.09246336829127688,1.0068752163827703,-0.04481276890968447,-0.10766950568018574,wave
0.4935920342974196,0.07484605758095561,0.005963036992017413,0.9207217227516633,0.2044187352390364,-0.03194808738447511,wave
0.8235277368642162,0.34437646040732595,-0.06469367777055739,0.7444167266801184,0.09302051859224132,-0.06615448967037492,wave
0.8742526698073364,0.19178488216074313,0.069822331361359,0.46336205292598315,0.15540914083687585,0.08210075800681846,wave
0.9633115078522755,0.3117295831588128,0.03934853854217496,0.2173652498372275,0.04800470364372346,0.05049085446713171,wave
0.863500602102696,0.23427253463777042,0.08951932200277324,0.029496170472510803,0.1306386952531285,-0.03440751725888619,wave
1.0495532687845457,0.24567532191537841,0.06351718016819695,-0.10524803203037786,0.047329221841317194,0.11262179026721544,wave
0.9511477244871076,0.2569767280232204,0.10495527153193351,-0.40817827478139185,0.06881155196520974,0.049088274349579714,wave
0.9566034694058617,0.2447708560017315,-0.0535235211560568,-0.7093623234699271,0.19570156769333932,-0.016241569175431122,wave
0.5147570777152489,0.2642722759867544,0.13173940656343258,-0.760918233827006,0.09046587996183267,-0.12497028574367866,wave
0.3370232507900148,0.33291525301324315,0.019759960469239966,-1.2339100090736763,0.11087164365898615,0.11454712862953709,wave
0.08900858835178876,0.21965211697014703,0.20752608726252655,-0.883068822713126,0.14350338653443773,-0.0694786233381798,wave
-0.033413300725024436,0.27090037575885123,-0.06891878180895679,-1.1555305348688754,0.12478409439863024,-0.0822699373478446,wave
-0.4434132923562532,0.19102643057127733,0.17359638031652494,-0.9372129620427324,0.10752094525717883,0.051128521600482014,wave
-0.6203262427307543,0.3440117215449473,0.01979107834626478,-0.873412947831749,0.11824805012331127,0.12198762031696364,wave
-0.7593826036253017,0.13236076979407302,-0.06514180036144483,-0.7015848076942606,0.22017077926191375,0.06921364092552591,wave
-0.9198075097341244,0.3800940432910816,-0.04838858340543216,-0.22928237568345622,0.09711906014832074,0.028195456002617983,wave
-1.040022474404251,0.19598420493556568,-0.03203473081943202,-0.14279314603887158,0.11005495233574838,0.0297377170832643,wave
-0.9677727841246195,0.056922489788195196,0.042416594640191645,0.19425028320645,0.1525327198003806,0.042670777939015386,wave
-0.8070494480298356,0.21281044149107894,0.05228354880354996,0.4000912852344745,0.15527629664789921,0.03794642948933826,wave
-0.884483012409136,0.13189483425251192,-0.0573700003938579,0.6711938845810456,0.15935151527801902,0.01405957119846879,wave
-0.5848135630765287,0.28406435489887244,-0.0024354592260982843,0.809095810973982,0.13193651110145924,0.005210055197593804,wave
-0.44527908637329194,0.13473760206976093,0.21422703586118638,0.7986175349271647,0.04284975436347582,-0.003129656394976121,wave
-0.008372498792022384,0.15538165667852205,0.17275431701007116,1.09141669576796,0.18167157661505481,-0.037698229443333814,wave
-0.024441528793872236,0.011045926905446896,0.04363236696740321,0.9424143555071149,0.042682730349065605,-0.014033753843338704,wave
0.31937482015221447,0.15476936807509234,0.003800347816820029,0.771258567480047,0.11513177326195168,-0.08464784070976927,wave
0.6358317179976671,-0.04238793266289567,0.012003132671826131,0.758602105771366,0.062286207499032104,-0.004916981339737495,wave
0.9383838853914637,0.04160971765142768,0.061351797273041665,0.7735657809221648,0.09679308267035037,-0.049429555357545875,wave
0.9078375969085135,0.27604146561442977,-0.10227925651984056,0.4898055173337435,0.11643812051517402,-0.05517946586078855,wave
0.9316618307451302,0.27858001586508324,-0.025737653742334513,0.12473468159259385,0.11606786077251366,0.008994707557673924,wave
1.1834948198932573,0.2425457561784965,-0.16685840738775895,-0.13094879633952397,0.12109603771176425,0.06960011431722997,wave
0.7936670320081363,0.10330238568707871,0.03992231226052793,-0.3775285595430451,0.18068556345293235,0.04591583030011565,wave
0.6002916589349477,0.19522886438580203,0.0647195939702741,-0.36444186176608545,0.122676715075699,-0.07852503018115886,wave
0.6922298403131224,0.19963974609094318,-0.0483186462299374,-0.7232524131459784,0.08779216823546757,-0.04948140682851688,wave
0.38367831668229735,0.08416353108074573,0.15739867632900328,-0.857964703183312,0.14820435841441787,0.0470385593994108,wave
0.08903534698830232,0.3503398301767151,-0.12257656630023413,-0.8785308115878809,0.15947352444623203,-0.04912436967691548,wave
0.006765424749223037,0.2877362290575671,-0.14643748802098203,-0.974066476847685,0.03861960924315038,-0.01123165749985123,wave
-0.2907281466464992,0.17790358261703362,0.022445181855997205,-0.9749599615927395,0.12987000349249292,0.027502604951227597,wave
-0.6019427642842208,0.2026885838994531,0.10470983026121546,-0.857723089800339,0.13505863711554492,-0.04841722274318177,wave
-0.8683084369424037,0.22083828079475526,0.16839276914578688,-0.6794610162027246,0.08512182483200041,0.005268775307297996,wave
-0.799353573544985,-0.004173486842429075,-0.045888426286894005,-0.4662605138918205,0.16878534066558099,-0.06670127474591023,wave
-0.9099077943859574,0.17528226174794032,0.10786808334312957,-0.14975797959261683,0.09249722064837367,-0.030068382197560684,wave
-1.0094038025786263,0.13180157520022015,-0.003850846950070721,0.03724616615238367,0.10627882267357712,0.015989096707126848,wave
-0.7740041534318942,0.09983799901050845,-0.017262729994081964,0.3577915943525897,0.09134640878580652,-0.07964968667658347,wave
-0.9621512396379623,0.17188997071140452,0.08836599374866724,0.5103209102996654,0.10077895237907339,0.022023736898019952,wave
-0.8482350676959609,0.3797686526849523,0.06523228784134197,0.726212869129336,0.04518624565523991,-0.000981889946334061,wave
-0.559908358992064,0.264084286126701,-0.15763921569842496,0.6714986356701776,0.02799745587028528,0.02762449772085739,wave
-0.25821318554505834,0.14288210102172033,0.14765403497258958,1.0589276305092772,0.17972525316124863,0.011195706703233072,wave
0.024333944932268696,0.25725827813561586,0.13800913541474516,1.0346488475897992,0.05765193258408361,0.06820702149869222,wave
0.012522450264790728,0.23308802322144573,-0.06680904536430488,0.882988697394064,0.047654450865903024,0.01544165062994819,wave
0.21071402979698206,0.2833528961608925,0.09920423495365228,0.7870968192810275,0.12683263762636432,0.0851107472317619,wave
0.5029473023071662,0.0006264357428544531,-0.017495975669540864,0.9254649769438682,0.15928520773314986,0.012037658974428414,wave
0.7500123535071251,0.23740565698475724,-0.07557451594928448,0.7942648661279924,0.13594766553325335,0.13008415570901974,wave
0.8600287700379166,0.32276689924732926,0.053650984357040354,0.4607415282378532,0.14980238429029083,0.02827548228157721,wave
0.9627270221570489,0.07903589813087947,-0.08984679817910374,0.02542335741654167,0.06216024557152697,-0.08803813795779089,wave
0.9292870474200123,0.36725723868377036,0.002818115736912825,-0.02257286725359295,0.02890946666290782,0.03766708105522663,wave
0.9086378204267288,0.24190190093660452,-0.0009118996644203544,-0.1833405334160597,0.17506668259777436,0.01905791924413889,wave
0.7463387791930307,0.12949881442415911,0.10858955658315782,-0.610429447118248,0.08386600805789321,0.06448763770413728,wave
0.9152356713940096,0.1944230922342294,0.04746982328799528,-0.653964898283401,0.08745834917724764,0.03365906756349792,wave
0.42114857767142055,0.25583269125217223,-0.002502695874514392,-0.8396190898091399,0.1664097070924529,-0.006922799199188691,wave
0.24581769824403016,0.20760053914124116,0.08177662992002871,-0.8911265970505597,0.127811500470033,-0.06121491181446829,wave
-0.0077705065762065095,0.25387559924463693,0.13902075490173135,-0.9859873559089211,0.12279438860408039,-0.010451162864301264,wave
-0.10166619100692774,0.10793264069206338,0.055781030635186225,-1.078866051079221,0.2082501172450542,-0.04252602271046501,wave
-0.4633787069467608,0.21693608240360782,0.0010352619843380607,-0.78131171773597,0.06782408848099286,-0.029026172490236136,wave
-0.5234541880404148,0.05862855030950198,-0.13118362323501595,-0.7772989156718316,0.14639200640406186,0.029428920221030483,wave
-0.8875213170213425,0.18887739386512997,-0.10651136630753727,-0.5748471140731631,0.10285065624485423,0.08349522521757032,wave
-0.91056900582738,0.10960923585352103,-0.030522470435466766,-0.4386918503286278,0.11342961394316285,0.019733576491149055,wave
-1.0789138182751739,0.12644700574102335,-0.06095122021592832,-0.1403512510268335,0.1764234213206266,-0.05979415310175922,wave
-0.7726668706371115,0.32360931752104377,-0.0186971302985446,0.0711196236306883,0.12539178781448118,0.022230133411007037,wave
-1.0331724649187641,0.30913101205942695,0.005664992489710717,0.38748873713005066,0.12691480395248167,0.05983157433228256,wave
-0.7508494114453271,0.26091381209071773,0.052969275435673084,0.7946606498729677,0.1536253668654901,-0.030489145215969113,wave
-0.5347328423980063,0.09076872353274211,-0.007049877805909122,0.6642235075748207,0.08175236352285574,-0.006700858333645885,wave
-0.33388709513422477,0.16835915503051982,0.048650164382620195,0.7655606175583475,0.05803951663304968,0.0007344097364598547,wave
-0.14640592757227747,0.3213097699979184,0.006447441481012024,1.138907046572607,0.04775954029894833,-0.039244915654112006,wave
0.11489509171116263,0.21417169136399047,-0.19754665663538715,0.9708576461080596,0.0016821705311999141,0.03241402169219295,wave
0.37964815207728425,0.43193295399816944,-0.09393353938187543,0.8600094834800305,0.20281035649701612,-0.006047407430389079,wave
0.5834103303283662,0.23933178393943721,-0.014408755572161548,0.9054040906075649,0.044839581713915846,0.020976622195351388,wave
0.8782193941475206,0.2192049116490032,-0.12096947428411076,0.5629282478850473,0.0889373188207114,-0.044374608890105006,wave
1.1354649231749474,0.16908835357974988,0.05999287299962045,0.5873843144770878,0.08615933500555398,-0.021872915016170523,wave
0.9314326049136668,0.21335409047822823,0.15307508323436975,0.22739248216730668,0.11537033489045505,0.03611906789138857,wave
0.8583988149912904,0.18475301636194563,0.12187618516973167,-0.14481416672225134,0.14078686062696485,-0.01864165760458835,wave
0.9296402172146352,0.2708108676688591,-0.021344287093020803,-0.12963423309475647,0.14302367441798727,0.08634819256167026,wave
1.0781431883623878,0.29567023167945844,0.14907261368499522,-0.6326881524225034,0.07084612807155308,-0.01998180928073012,wave
0.5678609385108161,0.12140105394920506,0.014866745720211155,-0.687236421168203,0.09164391431067943,0.011234236287594297,wave
0.5977954196619653,0.06687670464422221,-0.033708597111803934,-0.8710396098617698,0.114128997524415,0.0466295415936545,wave
0.3589287101090177,0.016379462689670332,-0.06134026635409398,-0.8513850280511853,0.08756544369082266,-0.07091828664665159,wave
-0.11942904415151176,0.25079913269125437,-0.030246968648812836,-0.8417942730776511,0.18036727880099965,-0.0880404405990388,wave
-0.25820991010509153,0.08966333938261264,-0.038817681854122876,-0.9458553321040926,0.12454874758191257,-0.07628281572850475,wave
-0.3826952388976941,-0.015289059295248292,0.01704162223754877,-0.9134298919264595,0.13674388930249087,0.0631292051713591,wave
-0.778190771174063,0.23885786045309643,0.01605739810498646,-0.6263036759674065,0.13314406343337065,-0.02759290729462234,wave
-0.9069573423832358,0.4492999517432791,0.000304602015341447,-0.5303098272160469,0.15867369287426625,0.1279099642834126,wave
-1.0330960035766878,0.19939290884601069,0.04369381697463499,-0.02118220920365249,0.10905107793518536,-0.02821237993286943,wave
-1.1009618892699746,0.2838490774451642,0.11906462747863414,0.045705110679927476,0.03515840260220768,0.009227565159851849,wave
-1.0235956075432615,0.2081829358547565,0.09495541354413238,0.2479954314998209,0.11998439758763209,0.07710549762839379,wave
-0.9775367896815728,0.19011103468088575,-0.14848979684499036,0.5368605988970144,0.06743215531040855,0.10030464440795615,wave
-0.6922742037775644,0.29190764829877686,-0.25539211349019547,0.5836367211447573,0.07356916591251217,0.1030751788318199,wave
-0.5677148751098038,0.17097254558113487,0.09343199112392737,0.7741573002723232,0.12931820093775467,0.060418311529657126,wave
-0.2302759927304338,0.22673923140719032,-0.1366878698415421,1.0873362538334717,0.1619141535716818,0.05120312629057312,wave
-0.15558956462036325,0.23216978061960136,-0.022476540189268354,0.9343105721028604,0.10106357883680309,0.029626347460059155,wave
0.07783610761666378,0.18998459235200474,-0.018289644110484015,1.0579633173213576,0.11753150496367797,-0.13516161464996188,wave
0.19853601227665402,0.17963262498230342,0.1374876419148185,0.9998744946972461,0.12445935650738318,0.033893765976545386,wave
0.4088976636617071,0.1122017413243439,-0.06459641791245353,0.890757134281123,0.13173607342808852,-0.03270378415637119,wave
0.6953451048623912,0.117311964596014,-0.07991920066502536,0.6830327208166589,0.15548499209781116,-0.09153164484282285,wave
0.8381243007528533,0.17735211080984734,-0.04827435221820325,0.5522409526566943,0.12049093284642563,0.025560129976249037,wave
0.913345048103933,0.2367365506816178,-0.09533286082587124,0.2549874456171297,0.08793711726907288,0.06868292725814788,wave
1.0691249609463593,0.291358462623325,0.012267031599479554,0.048897675198616763,0.1336286850601366,-0.006872425731384593,wave
1.0704584330388747,0.11968210493196552,0.16246784584695606,-0.09076118039551836,0.1949940967447608,0.047643727360146944,wave
0.8954399950021849,0.3492688568959522,0.03230792731160291,-0.5631925467687993,0.09336831268087133,0.08061391289943227,wave
0.8880310051808419,0.17288763989574313,-0.025235350212628762,-0.558313034148412,0.051273534766467926,0.06574572267920237,wave
0.43136598979719853,0.1978632705651564,-0.029181126891554412,-0.7063765981578538,0.15535403346434865,0.08199822646856965,wave
0.2957422720956491,0.12527883208521767,-0.15631908086966573,-0.9608625997097765,0.0939809418023201,0.03710637455359461,wave
-0.007612012079567271,-0.04242402602729417,0.08831097771471591,-1.2101308826511958,-0.008633477300701811,0.0037716819450796402,wave
-0.3778122904086779,0.288404539636105,-0.007783719701280204,-1.0423413557005088,0.1423710838575211,-0.08009829059485843,wave
-0.44215180770182794,0.27368438970924336,-0.018047991359062567,-0.7712694132463083,0.07323359070230387,-0.01230312440649743,wave
-0.6604031461461165,0.17186724428817868,0.3193107567844861,-0.7637327645990228,0.09547333588479197,-0.04216232976580959,wave
-0.6688272802727425,0.2066990717224872,0.029875290836568626,-0.6720468833516611,0.11659901652845073,0.10854713587489069,wave
-0.8753872535942825,0.25159392177040996,-0.07517910500951844,-0.3958425465441299,0.10952498398895333,-0.00879429062161683,wave
-1.0977977953821185,0.04374541431134574,-0.04263575962055433,-0.01196102325722713,0.13547259085695199,0.006160240339224284,wave
-0.8017725267810314,0.14709473226537054,0.11484457091967548,0.21427325185351634,0.07822568147150784,0.027574268802023377,wave
-0.7923092534632775,0.27942646796218273,0.011327041053776446,0.38089013320542353,0.12565528990880415,0.0021801223186226864,wave
-0.7236217121211683,0.07457105768307506,-0.1438277978317367,0.5868073606772646,0.08702266612080414,0.08475255202153766,wave
-0.6207589403761994,0.22935579321666294,0.09192289345752036,0.7622378069635742,0.13694052404437515,-0.031132468086722598,wave
-0.4712109285517226,0.0643418195376595,-0.0668144085538994,0.8346757388961714,0.13076837420065268,0.009730372761862137,wave
-0.16509783929161193,0.24664299824335265,0.18732977762175457,1.1533275827701903,0.05322806489777024,-0.037123529284902416,wave
0.23675202365492387,0.19643585177025166,0.10800480657146486,0.9595579669021121,0.1542991058087516,-0.0660011255610353,wave
0.5637256354728342,0.038486818409449064,-0.04473218956587512,1.0486326094285716,0.0732018277442976,-0.030588454545264272,wave
0.752434883318434,0.31647393544571717,0.1281016361735113,0.9535452270602024,0.14040288991405725,-0.0018518398524206012,wave
0.7329465402894022,0.12654084232019508,0.00678555105274033,0.7233208916735298,0.11836436567006704,-0.021465111225863,wave
0.8024508796869112,0.11897475629856191,0.08527736751222195,0.3616213118505894,0.19190918383975614,-0.0346210489936928,wave
1.0012704081055706,0.2200569197230943,0.04847328172944748,0.1999729040670407,0.0888267008814074,-0.0703158731835917,wave
0.8185351763929131,0.31486373494287156,-0.08463566549908735,-0.0984425865467727,0.08253416019409013,-0.004155278631434739,wave
0.9707851934682388,0.09841781810216031,-0.0643549832317462,-0.43573524049431966,0.09902901970561337,-0.07523601870155011,wave
0.8054119959670891,0.2061679849847972,0.10299608175811613,-0.5396807319500092,0.08484101085828623,0.03800279818448013,wave
0.601624745120965,0.2428816500330573,-0.03347753321065409,-0.879349937485114,0.1399970950971025,0.0041219876467251644,wave
0.2744134323908789,0.26931056072631443,-0.04036484632419968,-0.7822009290562626,0.019184469578170604,-0.07287757497324653,wave
0.2425186393583453,0.21764415552772254,-0.0955122579349353,-1.0280208867209044,0.0473158790426823,-0.015460453852493172,wave
-0.11734030394690345,0.16329721609166778,0.04235990655934611,-0.9778294271630524,0.04660985392104035,-0.037607820279529164,wave
-0.4320999015946479,0.11724097793512804,0.2062524919243145,-0.920726959856055,0.1475153795986788,0.015958725520959022,wave
-0.8327611225387128,0.2086143883046375,-0.10675329142542729,-0.8639786022622489,0.18553066862909628,0.06702252230115723,wave
-0.7430294875803779,0.09278609880143932,0.002421945667275807,-0.6136315101137908,0.09477753907312643,-0.09375862348228724,wave
-0.7093741467060252,-0.09213504834946074,0.14122205554154293,-0.5100286559030888,0.09155891384049947,0.005751303957370859,wave
-0.8088019907270365,0.2436559804157668,-0.007964139124571515,-0.1353912042105904,0.10350260815565908,-0.00800663977833202,wave
-1.045195841859315,0.29039348410861954,0.045237179624973395,-0.10254639045302114,0.15809391513040955,0.033567003822523284,wave
-1.0188890590728388,-0.03629324355418384,-0.10623935281468798,0.29716554458567296,0.0536323432904713,0.010659831411884459,wave
-0.8082653373978447,0.09902692952900626,0.04283070972076486,0.7122854682163521,0.11191844913673926,-0.03759846658694096,wave
-0.7955210945223162,0.26191542610051977,-0.018714426500454878,0.6183162176371695,0.1487598814891215,-0.01595269678333091,wave
-0.46053836202199305,0.4057495469711699,0.0985729995679863,0.8035442070709032,0.12505470849699227,-0.03980129284017445,wave
-0.17704655607103953,0.2020793707675408,0.11873860515647512,1.0186856480049207,0.10947908082993718,0.05380035692992992,wave
0.12269332238843028,0.12719970587708657,0.2589563642018614,1.0179581781939597,0.15005230462835706,0.001065582433597111,wave
0.19011906857530075,0.1353772690156197,0.06969544045107356,0.8226967531793119,0.06624108625128092,0.041254913233381735,wave
0.24758850252804526,0.37753108926095125,-0.033381948975601,1.0934870131104286,0.09277406646422412,-0.04335651078554502,wave
0.4198768753128916,0.080636316824352,0.11731246375866414,0.7807454740371276,0.06037900395000194,-0.03290582445376283,wave
0.5443111113422037,0.2919154173610002,0.03696421921980939,0.6529727162328457,0.08460192351804799,-0.015186301438833233,wave
0.6748287953797516,0.30005823180429786,-0.01073021440042289,0.4588264389061759,0.005319266652310722,-0.06729354617366075,wave
0.8002542587361116,0.1329379790923355,0.04477169258102776,0.4219713959481144,0.11066468536864693,-0.04096289298607489,wave
1.0261988813018363,0.3392465300064329,-0.15708761520684994,-0.18151584382621422,0.10006027376811122,-0.023811043677232954,wave
1.025800414504817,0.17499534854010473,-0.11267674689098053,0.09125391940968508,0.05914556844659047,0.04371945903563638,wave
0.7284802361697867,0.2288693629279857,-0.11939250063990554,-0.3569326093342299,0.13296228342162025,0.01312806645009625,wave
0.8297818284829273,0.2260321838771221,0.014294309476370677,-0.6499769988484005,0.14687850688132792,0.009679495568377218,wave
0.4972287960422051,0.18656912585294522,0.1732514999485092,-0.8435775049534691,0.019622006781551293,0.042544898108398614,wave
0.3297875192221758,0.2810808273159782,0.22313001461926324,-0.920500339524903,0.06186376107168929,-0.006868589419969833,wave
0.22529228280625568,0.2793488720552213,0.06380511014407572,-0.9458331499124025,0.06154288251063509,0.01952324249644448,wave
-0.10147469711481868,0.025146802676181912,0.0500844474944457,-0.9170375983960597,0.05300484494455677,-0.005161087646624812,wave
-0.46073680390814126,0.33043402428781526,-0.1801057734152739,-0.8454084213020743,0.14147374209658742,0.013268117469981423,wave
-0.7373476178493169,0.03375080119643256,-0.054267379973402176,-0.7524878902436097,0.09030869306135983,-0.029137932880579104,wave
-1.035353794729886,0.30325462043416573,-0.0787783751908239,-0.5918505021529026,0.08677425793446947,-0.12194085791382146,wave
-1.0103837539740022,0.31267051368275833,-0.06208475982511161,-0.36049238278665935,-0.0001931182203376708,-0.006713958109315208,wave
-1.0164921368319675,0.09090335697848018,-0.01681438185847896,-0.11551385394295055,0.13177090151046134,0.07113740680499701,wave
-1.0858997361295688,0.15891857120454153,-0.04720905776971274,0.27297690472008485,0.038037080257326376,0.046310770112079624,wave
-0.9275383197250433,0.08942953315140643,-0.19792998103757878,0.46413901535047913,0.10299663151331642,0.048269874229558536,wave
-0.7741462941721531,0.17850789697112648,0.07479102561175338,0.3294509383923053,0.11386884689790959,0.06180653609031089,wave
-0.6205961286720241,0.16919657158142587,-0.10727430257398066,0.8670036995209325,0.16803292979193257,0.004432879548071872,wave
-0.4402672629617206,0.277966053226934,0.023924686411114955,0.9463903768178992,0.034558980044044396,0.009865785370279781,wave
-0.11101169448783386,0.33103087461196085,0.20740826697499737,0.9899191381786563,-0.050975607791041266,-0.03088259477171751,wave
0.17207122664144614,0.3395683810789956,-0.09193845915864235,0.9529381685143575,0.10919247723768474,-0.015803642801352488,wave
0.2662270971350887,0.1437831973421698,-0.253028752274633,1.0393280293446234,0.1900255590755427,0.030788557488557078,wave
0.7392037684658421,0.17907781262554723,-0.028600422188011083,0.8961662680802431,0.16194731764697187,0.06019422185844081,wave
0.7719726692396034,0.03165618077790497,0.11009596349985712,0.5462020350763728,0.1104829707637313,-0.006972313784049978,wave
0.916297585310297,0.11941299335038114,0.1958347454220594,0.44548857183484775,0.07541819071839764,-0.022509463242570582,wave
1.0580032257401057,0.2964851633097458,-0.1229549594452417,0.06243422157925116,0.14035612983186552,2.639794282986464e-05,wave
1.0187007260755483,0.3615582823548232,0.04966992232365217,-0.23398484238657413,0.05132269001477657,0.030060337446455743,wave
1.0337820854410853,0.0765651128120078,-0.04653104567800534,-0.4080367768803034,0.12381788846781097,-0.07219274080667709,wave
0.8488846711171384,0.1407535740847106,-0.010594835430413566,-0.4858773128838937,0.12527350795833136,-0.11480904765686191,wave
0.5869846578437454,0.1973594243041073,0.26443433470170347,-0.6661334538315251,0.153010495374944,-0.027526842474579177,wave
0.4700340916381686,0.2280161158819607,-0.15029703283951534,-0.8496603258926896,0.23798300194555388,-0.061035621295707936,wave
0.07678600796930747,0.1190396480078354,0.025373966149457347,-0.9090495783062654,0.11962079835893835,-0.025407009882365546,wave
-0.053214249403059986,0.24240610444640898,0.04676931717654332,-0.9463275640388404,0.07455181871462507,-0.007389015940873577,wave
-0.31843121708806515,0.1526160652929084,0.10857863249393472,-1.0132039065329643,0.09872128439040029,-0.02266242045115067,wave
-0.5663465869378019,0.1985547729121721,0.009798315347089545,-0.7948958504244471,0.01154620475554409,0.07262337672353728,wave
-0.7531317482192074,0.25462842480036996,0.030805053950410236,-0.59225993773855,0.0652643434455471,0.016337238230116003,wave
-1.0747842109227634,0.2006422269810938,-0.039164856742179115,-0.38710915725947886,0.0795358780943448,0.015023717980541418,wave
-1.0298004029559196,0.15636141094734315,0.026912694124510736,-0.1036295968088505,0.07379558010327038,0.0311103572021701,wave
-0.9902017260865764,0.18903901960741692,-0.03431922754974105,0.10288196229176011,0.1076177436016861,-0.05694165588903846,wave
-0.9426822138369207,0.19116370407946648,0.062157188985605086,0.3196724073851901,0.05887900338088997,0.05195558937101344,wave
-0.9579102770979429,0.16299889701178724,-0.0369610336043634,0.6254075921421663,0.15605153336622357,-0.0037882143267729943,wave
-0.569111766517017,0.17412039373328977,0.03771003939021865,0.7156972241728209,0.10001035324590986,0.03352403086206063,wave
-0.5773350368253898,0.35986471705047174,-0.0029262813684978357,0.7831312390006167,0.09953498394306928,-0.05359286165200777,wave
-0.15670886385683488,0.2560919447941239,0.11260502507721681,0.9509881666446527,0.08360526417435411,-0.07768793830080323,wave
0.042719436187167996,0.17045196819708397,-0.005139372358848624,0.9255097355193551,0.10775953419294897,0.04089448290125144,wave
0.037640952609751664,0.1824145595567929,0.1804348109786743,0.9872450879622465,0.15259738088614594,0.0529968192023311,wave
0.16344942847375632,0.36614701657280185,-0.01909037917272987,1.1184103560637642,0.05009696863427936,0.030850297478834877,wave
0.40375124387646844,0.20208864882959618,0.07197579421481819,0.7262011351182335,0.08080143640238242,0.03417846616002388,wave
0.8082260290449633,0.22307009057186836,-0.12932729578711638,0.7171404553131222,0.11251001031258473,-0.06829778556002672,wave
0.7362015737186133,0.07398352348274198,-0.09564363768180088,0.39315322386921325,0.19978337448919822,0.06059719926932003,wave
1.122935148362257,0.13836385919605226,0.04724062778803774,0.32089077489352946,0.2554959278002681,0.013062526561692803,wave
0.909424142735901,0.16248036196760632,0.1484116028535965,0.12074031658138537,0.13033615295680914,-0.01846385696231016,wave
1.0387671047426619,0.1682284903243766,0.035561334878566,-0.26459711332441965,0.09084016906398061,0.007169423367112554,wave
0.8537374587981017,0.3281643795003769,-0.03130580305231544,-0.7229596759035486,0.12672528242402753,-0.088811761644916,wave
0.80059674018355,0.25576910607251246,-7.085945766459172e-05,-0.6524060755816671,0.14438277129369181,0.020432640574033545,wave
0.49112350099912977,0.08885420430629681,-0.12504077339697175,-0.7944142497184894,0.08396661872214042,-0.05146857540910358,wave
0.29882892741639144,0.2246504778432005,0.06045153263553668,-0.9086262715144988,0.18976056779561612,-0.06763351429217672,wave
0.06816213752028534,0.24982217484967853,0.08823330623234092,-0.8743671735681209,0.1115035379595701,-0.07611795931089456,wave
-0.29137737427951915,0.31401490385212666,-0.04520903328330804,-1.0886645249559703,0.12488715445456972,0.05563441874949626,wave
-0.35980130457554543,0.35805406865683737,-0.047004214775950154,-0.8329472573573742,0.13329621260272306,-0.031463169684639435,wave
-0.6995497519549467,0.09849058081721314,0.02658782296520485,-0.6421952071213372,0.12107933053072278,0.07668638549582496,wave
-0.8430322461309575,0.11891424887896618,-0.043671973604059555,-0.7499754185228217,0.1419470250234806,-0.02679007315261489,wave
-1.0379033595106115,0.07424221410853837,-0.0066132614625822456,-0.3133998718294104,0.06913734067265384,-0.08536789787964734,wave
-1.2516124788287293,0.17659801408930187,0.20997217891665154,-0.14644100900844959,0.07208491230269848,-0.05582622199743296,wave
-1.0062845596744672,0.24663583744463347,-0.024702570074599667,0.15144762772321382,0.044992288351415256,0.061790581000346935,wave
-0.6731510808545212,0.2987334516589102,-0.035834015202122226,0.43955099147622656,0.12197506153101133,-0.007794908896833376,wave
-0.7033710536782275,0.19240489763574772,-0.06475418056351592,0.5747669454473782,0.13894682517560572,-0.02741436482453005,wave
-0.6000365684646557,0.16801524767451562,0.07441919714999368,0.7338428139517952,0.1228886433075943,0.008000911292639384,wave
-0.40155608780020136,0.21517579922487404,-0.0181224173218103,0.9303319990948241,0.18372462166737688,0.025089136808377252,wave
-0.125630572403302,0.1164857098369977,-0.0649373038321426,0.8830654199369657,0.09972019905854768,0.055869940795123044,wave
0.18258907320202625,0.4089538721694774,0.1321304032273012,0.8832075009347276,0.13343708277962563,0.07242496149464632,wave
0.2571857233484888,0.039233897288194125,0.14196030045136374,0.9948540856416724,0.04541495619303429,-0.01798843228945429,wave
0.7095426999581023,0.21847405788957247,-0.06004235657387052,0.6865342183520917,0.08064501487627995,-0.06630238430410192,wave
0.8533696140121539,0.40236062192296396,-0.18665399513606162,0.6901210519496549,0.1347768878782889,-0.020673258056163803,wave
0.9862311955866058,0.2006799844559998,0.10075136898369222,0.45104247240778933,0.1424551055371572,0.013014025329144308,wave
1.0310293572954228,0.18099609649985057,-0.0684629825760004,-0.012980777845679914,0.08530165261679089,-0.04818794631053055,wave
0.9973407787185973,0.16425545771895728,0.07906255991627686,-0.1637794911412466,0.09642003740709666,-0.04785754574475215,wave
1.0057545456464427,0.18196083182375922,-0.19701038177118357,-0.22595411411656957,0.02410631266595953,0.01718939407749427,wave
0.8793536679710938,0.337284847467653,0.08925973382993092,-0.6702332132361377,0.08214853995966953,-0.0024326175785225577,wave
0.6128243242136868,-0.02118619113295067,-0.12111719292807813,-0.8078863846000726,0.14451915817598932,0.0016398497705793257,wave
0.37652356182786834,0.3533433701296326,0.07307641190665246,-0.8547627785772293,0.12876025080532832,-0.03792476673500347,wave
0.20134425822757232,0.057604284754985496,0.0014273067836434107,-0.9032201060628056,0.1250332860690605,-0.011520035710288368,wave
0.09083179516880643,0.17333476707655854,-0.0953939419396645,-1.023099281354786,0.10248868435904801,-0.04621165721341522,wave
-0.4390189255890092,0.15707555797013384,-0.04070363129267805,-1.0088067664798333,0.10035315793140882,0.04450992055623934,wave
-0.692287427785792,0.258855326977072,0.06863184569567009,-0.6958511187219903,0.06698394302632765,0.05176246673618763,wave
-0.7238019129516626,0.04018756481162525,0.010589445311523425,-0.49841092388156033,0.13494142101012674,-0.0923093931119047,wave
-0.8815105361873977,0.2462172666081943,0.05844129804724843,-0.36465248516265675,0.1210486472194695,-0.04647554300962051,wave
-0.9575937457447827,0.40243096232868525,0.19764405845154856,-0.2139891196998124,0.12460094239963997,-0.07482646275450396,wave
-0.9750908964098378,0.06368259954071895,-0.15642416117110514,-0.04877499459243891,0.07369825786662099,-0.03250119672034491,wave
-0.9809880785001414,0.21897061676103957,0.1617212574968624,0.20148314597537526,-0.007667145993562219,-0.0041718984895180436,wave
-0.7061564191451388,0.13380178222033912,0.010435593752321294,0.5706439788370994,0.15485763558768478,-0.07248226098492651,wave
-0.8557729484511386,0.2425887206193036,-0.08987840483231282,0.7601891721865953,0.0760581271995798,-0.04609299065626566,wave
-0.5735672544819642,0.2019147777415752,-0.133031362573899,1.0114785634180314,0.05686121179784397,-0.05019786860407493,wave
-0.2639800599244133,0.13585130909556903,-0.01891203907770335,1.0323398722926431,0.1346739455956997,0.010363366469947198,wave
-0.16431888111541723,0.2487872284871074,0.09216501119244594,0.8496919698240182,0.08039936800404353,0.0034672168518125215,wave
-0.07217375533372533,0.10838080845187575,0.0570612997219531,0.8414016687762041,0.006172364697906302,-0.04538780900734602,wave
0.27133667112344717,0.11681777917695553,0.09681846605328612,0.779302424525125,0.13098557229830682,0.07596419618208844,wave
0.4360495435452113,0.19328217099506448,-0.03313083831833227,1.0584152216605676,0.06823188055871854,0.025539604426379738,wave
0.668517039570881,0.12842400108892482,-0.061223673450775035,0.7573107678348181,0.04051666704548194,0.05152902928120287,wave
1.0224879720351998,0.268205206571262,-0.10851505265577982,0.4315632951228885,0.06878273051433881,-0.032891727692606856,wave
1.0927139582156953,0.34872461553359274,-0.08254105299789552,0.3379904952432762,0.09077373211720753,0.04272626135333079,wave
0.8695280925079281,0.14199467586299572,0.29490944253087253,-0.23152319633003243,0.06976276677308937,-0.054596695019765655,wave
1.0579011539697412,0.22394045005353772,0.12446795807367868,-0.22218338329659823,-0.010278302854953458,0.04451237504182544,wave
0.9677389618221593,0.24996851103029338,-0.13510743662080213,-0.42975617295652657,0.14485330984435663,0.00859196698967656,wave
0.6254516682000539,0.24720022709192746,-0.13224579567435701,-0.5798738763075336,0.1637437520639361,0.027662560999239184,wave
0.6274126655860351,0.20759552679160875,0.04818660617184915,-0.9394777001210941,0.1325760995669753,-0.05877973028124259,wave
0.46890140986487616,0.27426824183597226,0.0547264797377967,-0.9404870308703327,0.04311571647875917,-0.044753492113830236,wave
-0.04818426064372816,0.24822489526806574,0.054888383531736445,-1.090487855356295,0.08992542330262411,0.02986141091266924,wave
-0.28290891080279823,0.07623375776727022,-0.025495579355369787,-0.9560207814236338,0.0996739342385271,-0.04741740021121004,wave
-0.33211759243320776,0.28691560643892733,-0.012545426000290023,-0.9905035001387216,0.12993971947809552,0.023160314604956156,wave
-0.6210788642252234,0.2887290837266742,0.03278795241593574,-0.8022560422851567,0.13341702443590406,-0.06835689032301229,wave
-0.7650246270730033,0.12367138958214186,0.008589300629333042,-0.6716981996011929,0.06329131006107522,0.04240871063333341,wave
-0.9044095004097106,0.20379378354476022,-0.22193003727475352,-0.28025143023894244,0.10409977782067803,-0.061626165738425456,wave
-0.9563095208563837,0.26833289928110693,-0.022979963057519384,-0.010177914242015904,0.12286402023076207,0.027614996883976162,wave
-1.1198289962455585,0.17906861804206387,-0.08514064342603136,0.13613783803763702,0.17279111610733833,0.03128154668230004,wave
-0.809680852353668,0.3072978047766012,0.017521141890851206,0.40860714261839576,0.13522532699123616,-0.03483859092147875,wave
-0.6648724832252526,0.4363872494619361,0.29852590026034104,0.47863066039537894,0.13945283436877595,0.029101328354236344,wave
-0.621049604898019,0.12140139673650177,0.03674816654743044,0.7714459570672777,0.10419133139646805,0.013022113166677798,wave
-0.37961469986076085,0.061895539684622525,-0.03135296861723979,0.9218962956418472,0.1705229572601752,-0.026942092809636914,wave
-0.2809879119400789,0.2303818595604876,0.09218015019772523,1.2538693229262436,0.12048813979797487,-0.05042773420381041,wave
0.17930263728628873,0.2721562505126144,0.048268788720921274,0.8805933112458297,0.05694560449132148,-0.09813128458362896,wave
0.4324727490507877,0.17691336261552312,0.04200944904518413,1.0733344812212657,0.17016849850625954,0.017482502364984685,wave
0.591891428791284,0.34532606633210344,0.060685059321567106,0.901099499214538,0.1348951636269514,-0.07824013856810276,wave
0.8942668184550798,0.06613942002767512,0.20565435648295416,0.6515534423077474,0.0778477989435759,0.0047672099720654105,wave
0.8810048999178183,0.26929186230316116,-0.11308884353259158,0.5806453915419076,0.07602535163003783,-0.013172410804112456,wave
1.04364237600381,0.13941391792411068,0.04736320768114545,0.19681044229406605,0.11482877725703809,0.03395713877190978,wave
0.8934126790799867,0.3719377906207297,-0.09263811299815385,-0.057107106340888204,0.12315923976337924,-0.01510227497449321,wave
0.9361132069623368,0.39925153531681185,0.05555126463422483,-0.35067711972306137,0.10986461328156033,-0.01647238931735457,wave
0.8027368288066724,0.12333434122166521,-0.09186865114860944,-0.4497597718803068,0.11556543367214425,0.03659353521441478,wave
0.6707591875118833,0.145044286409142,-0.04173668136050844,-0.6517990349880454,0.18499786872881904,0.01675290145420588,wave
0.3969310462342226,0.2859587886979802,-0.029508991423790633,-0.9635365966520402,0.15357715761174429,0.015807797859138915,wave
0.17801136913420687,0.16128693502104854,0.09758167193447091,-1.1134838764509418,0.10953177956325122,0.023463379490426314,wave
0.01853449716343833,0.19545887820677618,0.09184544439424139,-1.018243456489902,0.14706552903837417,-0.0767786061603553,wave
-0.35878464174744085,0.20253884205424103,-0.12457173764463846,-1.0290596034504338,0.04837380482362302,0.0378394339993491,wave
-0.7061926112844159,0.008032684380234356,0.005493411099984873,-0.8444405623533766,0.11989635249734046,0.030623439700680117,wave
-0.5653196066547722,0.19861622539057627,-0.07095798547491726,-0.5485570767929043,0.19046531748665552,-0.05083415642882486,wave
-0.7484538985039508,0.13102722259358263,-0.12585049106753346,-0.5082684557495153,0.08909770523038131,-0.012204023683710066,wave
-1.1041541816923854,0.15068771776002282,-0.02170170504243704,-0.2268032720874723,0.057618303569045765,-0.0019653643813815594,wave
-0.9305154356761685,0.3443632003468814,-0.030848278845581972,0.037853851052493254,0.06739555557034696,-0.006724839220086636,wave
-1.0089653300917951,0.07434931057207436,0.24267164863455226,0.3693706748515603,0.04551834813288058,0.016692998328426734,wave
-0.8287940414722411,0.28132051867479774,0.043295982536069616,0.2937036349120631,0.06076190459361483,0.07156833909155917,wave
-0.6662601377021377,0.17210370696681915,-0.13776175007542374,0.6576793206211973,0.08147459507049856,0.05408833638364144,wave
-0.5141583320355718,0.17202398315041656,-0.05647740041709423,0.8924470733513357,0.029721649041067902,-0.06561095967157031,wave
-0.33203115046814824,0.27903718960517115,0.10213832954293985,1.0873027586817152,0.10078091669748016,0.031103499515302436,wave
-0.06905410523162643,0.23400512945688906,0.2088442772869925,0.9508097552493795,0.14511385868933235,0.06644666597677049,wave
0.03868085206892027,0.375547569831549,0.018383451632250438,0.9451731205074922,0.0977243877349379,0.060299725827340805,wave
0.362752626428104,0.35730197252148566,0.2693033663980497,1.0506282542170602,0.07878818333009782,0.038870367638225566,wave
0.6919445965740144,0.15341944308818373,0.034980002456790754,0.7608324248171374,0.07150835358806207,0.023333549098304054,wave
0.7980535052141845,0.18491622884333048,-0.10040545968420103,0.7404034927991144,0.11647543677865047,0.07605031135796901,wave
0.8800736225695189,0.19260524343916074,-0.009546424708907304,0.640188483541081,0.024141315166416044,-0.04744582604124187,wave
1.063176700445136,0.15483405238403775,-0.1776246333466452,0.23320795017969306,0.13752895837608828,0.08736815989577791,wave
1.013974999510377,0.2195024984028127,-0.008059974929676089,-0.03974031150310485,0.07919027975573731,0.04660957821301924,wave
0.9773182165103191,0.12417179311124099,-0.08330560570007588,-0.24557339647433943,0.043496533047982115,-0.011827764360947303,wave
0.8514578828016268,0.08693846650624737,0.09153902755601617,-0.3445657694047641,0.07749935710020932,0.056781007359147206,wave
0.8966193329585266,0.26227112239002687,-0.054954027459553495,-0.6528901271659808,0.16285746084312863,-0.05531467562058171,wave
0.4636920346163489,0.2629529584221811,-0.011676591579524664,-0.8912095343526002,0.07323324564918884,-0.04122570807638368,wave
0.4683449904914325,0.11956842403400077,-0.06355578414044034,-0.9006680818918646,0.11792268091048103,-0.03042948616198502,wave
0.11405663235475037,0.28953554307625995,0.17388513518533313,-1.1081746077339787,0.06345218621422634,-0.026448885403200763,wave
-0.33108924618156604,0.13684222708346688,-0.032124276611791173,-0.9134232059467706,0.13789609249618098,-0.05282788213801264,wave
-0.39711880981841585,0.22531652380379813,0.18325570434792018,-0.8601081371322423,0.13427538693951022,0.061154153354766254,wave
-0.8582310460729506,0.2820344012612456,0.08141517621182666,-0.792226805483023,0.1924304416648206,-0.012942720018491583,wave
-0.7576214529138521,0.1966387435296287,0.04820667273353862,-0.6559752399668931,0.09122180272503923,0.017625248417843978,wave
-0.8499452737508612,0.24547409121411345,0.036873314731751976,-0.43403314664965387,0.13343274023789534,-0.028517568320684028,wave
-1.0546147085144035,0.14835703561124283,0.03937972982162516,-0.04254129227309142,0.10490337697694724,-0.09103016502742586,wave
-0.974827013818892,0.1803533416571903,-0.192767257934561,0.2824979452822846,0.16479358909315073,0.013502867919571105,wave
-0.7189968796407842,0.17941405691196596,-0.027888339415075653,0.3410525684195135,0.06405838061956348,-0.09561274877098885,wave
-0.8324061528942236,0.12534216534597611,0.08451579711843216,0.6693284722138818,0.13725026564386406,-0.0034317023042734307,wave
-0.7040012891968763,0.1823225836884218,-0.004889718347410555,0.5927109200077495,0.09026513519416592,-0.06841575194164053,wave
-0.2271006646331147,0.04513817011362534,-0.1405189846803575,0.8684549842803017,0.09679059114457511,0.0993637999615404,wave
0.06838155736857285,0.15088462528578955,-0.005240445057746946,0.9886841205361558,0.10458762422241864,0.045568136108736085,wave
0.12824672886928998,0.17151245066303292,0.17041055162554913,0.9008216721250628,0.11261201982133387,0.005287689563574022,wave
0.47641330842020896,0.174382024750462,0.12468917155347195,0.8332661198670624,0.0941885478439021,0.06318533388273344,wave
0.7322581220443032,0.17585025541292212,-0.006200400936603175,0.7346356662210687,0.11073565915852632,-0.04231579887328679,wave
0.7075830592141912,0.1938235800139871,0.09514492770580867,0.6527090746913711,0.17890590287810923,0.027173968933504652,wave
0.8658820394790254,0.2479441518086064,-0.036650702036805184,0.38605044128175675,0.14927248428076093,0.009990521685935675,wave
1.1102692347299237,0.28745170741325227,-0.1703871586826719,-0.06422322829911745,0.14345772962484482,0.013201004066683501,wave
1.1638805408200492,0.13502347731517328,-0.09244659881295544,-0.30809304117118774,0.07722302369880647,0.0636176750053384,wave
0.9947565080671962,0.07967991446108556,0.1562888768508198,-0.40605157220702437,0.05553795858858379,0.036624605138990116,wave
0.7321908192467506,0.09579555877568971,-0.02739930818293042,-0.5263480015168144,0.14776502791188764,0.014436183141251164,wave
0.8469345064777334,0.1512797078805073,-0.02433839793750181,-1.0361964426416572,0.14380233962648972,-0.08274437181141481,wave
0.38078664933636197,0.16480786821834909,-0.029983819627488056,-0.950941885517582,0.1736335337875491,-0.04800231476397319,wave
0.15764485058422847,0.12300039338025427,0.1904136589573007,-1.0341839426428072,0.06980096870153853,-0.0061354466797862075,wave
-0.029836436531750152,0.07038833357501056,0.16259589153620635,-0.8591116149294915,0.08852256723198265,0.004668618713832562,wave
-0.1596921759521417,0.1543879172525812,0.2218780233448134,-0.9875579281819555,0.018025791873728297,-0.05651018623369619,wave
-0.46013730355532556,0.21814266201139715,-0.01590452104000513,-0.7997892064177483,0.08037644469695636,0.12058383377892107,wave
-0.6987914470391232,0.2595029465835565,0.029562448874709508,-0.6581751762525719,0.14982852552897236,0.07581970276267865,wave
-0.8402704533611889,0.14425769468916788,-0.15166425494207914,-0.6755949382215564,0.07667523103859011,0.030105916019624174,wave
-0.9705764453174769,0.1587002177856566,0.14769344261182746,-0.14570021229314106,0.1320239897600412,0.003601843064187238,wave
-0.9436722647488373,0.10733016911526894,-0.11677795512679351,0.05359122811728252,0.09047484470010944,-0.010610448495057585,wave
-1.2116238608060912,0.19685608296252238,0.02167755637626291,0.3353544505984907,0.11620285141107804,-0.04759592300111178,wave
-0.884803508912327,0.11515713658091854,-0.10973025276328441,0.9110163389541563,0.04261543050921664,0.003874025925943127,wave
-0.671550357111809,0.25731278132412005,-0.05888668267386961,0.5099380561478681,0.10426047248169507,0.012887627007137534,wave
-0.6058189603658903,0.021413350806588877,-0.08372624310497004,1.0437883690994993,-0.04955679854503617,-0.06208802877408122,wave
-0.21502225212835258,0.16403703275475376,-0.06078752606758179,0.9385501110989936,0.09065519209190076,0.016708820862244872,wave
-0.020447122098612644,0.23011073391917422,-0.05391227031489786,1.028732890440301,0.018476337814242988,-0.007762952441237438,wave
-0.19078075578773912,0.0628326302769534,-0.07068925679873489,1.0841983695452126,0.10925877684149571,0.03016237502856969,wave
0.16761608283155716,0.12905589975724535,0.08555556590207121,0.9303741429942849,0.12127224320920862,0.014907923299526282,wave
0.4493569986617734,0.1711451304124295,0.16494808943239211,0.5806198821912252,0.11111449279004271,0.03193300843215512,wave
0.8844513163375054,0.12162464788755717,0.10706105599791862,0.6808671444355471,0.16394329066566965,0.05290591625435751,wave
0.9107980754587219,0.37349365758368086,-0.07296024698074095,0.4145381862261279,0.052384180963060155,0.018380992010485545,wave
0.8251196961266715,0.11432279061732073,0.03614173172731029,0.12140000508493812,0.06615024307707343,0.0074044709899138104,wave
1.0480898451424516,0.14444532205131336,-0.12931415437586477,-0.09169108625060192,0.0613670277364588,-0.044053416833064615,wave
0.8201975132879871,0.22043890316029768,0.057239031117567576,-0.21158008677301732,0.1415095905931305,-0.03561103818245255,wave
0.9948684117617075,0.07978504739239112,0.045060341286253885,-0.32967420741601194,0.1450199294197532,0.05933673100886655,wave
0.6931655318935278,0.16043192882437363,-0.18698163395321643,-0.6409824428748185,0.12256126596592541,0.07181677028529893,wave
0.5361712823366319,0.23174532612501753,-0.11617838439123639,-0.8987384437134144,0.15917468334449641,-0.011905521815602704,wave
0.4476878827778399,0.1667139595617489,-0.028313889674376716,-0.9034653274935984,0.04109795663118097,0.002300137362663706,wave
-0.06464613687771177,0.19066131411000517,-0.030085974714082628,-1.0438544237722356,0.18336120557755686,-0.04523071874968831,wave
-0.330870447212671,0.14706678875516294,-0.12094769354188054,-1.0510191939073799,0.17616193108561293,0.05863784226337224,wave
-0.4922436717521585,0.0485529690819233,0.038897872935218375,-1.0164051347257175,0.13678109986228734,0.03327084118458894,wave
-0.5443905102058565,0.23215932113392387,0.02514736089405121,-0.9366288390443066,0.189089945438553,0.09706087182318746,wave
-0.9721068621446399,0.3754933071647242,-0.019426913197851933,-0.6111090307781145,0.017168839616111306,-0.04391615385898695,wave
-1.2216839818608172,0.20184016307834382,-0.0755791500158363,-0.32955970542929497,0.07377759318686741,-0.01890039495091086,wave
-1.040494998790098,0.22252641172475496,0.10487071264165636,-0.10568539290917142,0.06323482696590238,0.011572296126278615,wave
-0.9320077034233583,0.269272275511686,0.16554071130882952,0.11800320223864254,0.13607396618786716,0.03232447688628853,wave
-0.7943864480419299,0.07306695034533009,-0.04835614838465371,0.31020873705271484,0.047492963019892726,-0.010783381877381617,wave
-0.8281476186765698,0.3702514658129606,-0.06121669171548208,0.6843144210272303,0.13787475746687428,-0.043648054522685026,wave
-0.6392531912028164,0.22023287964228022,0.04912076654119963,0.6697004298732979,0.16852680719983568,0.04407037644617856,wave
-0.25987693145379986,0.3631856899089109,-0.03580293797469863,1.004519548730369,0.13476014500419997,0.036056768127279086,wave
-0.3148513316540487,0.12669670044760106,-0.013939720066323416,0.8915683119305735,0.11418755118307507,-0.04581370502818625,wave
0.08902508416620432,0.3818061922557825,0.07396531517246714,0.9165464900879426,0.05060633295496254,0.0677721400552748,wave
0.3943093938718791,0.27751554940347833,-0.1909356087507293,0.7802382382844544,0.05765745169373177,0.05850993545983019,wave
0.6430324026197185,0.25530400858523583,0.13183023248526693,0.7512734071793936,0.16248094526483334,0.006714824862389644,wave
0.7308508131489413,0.22340244543531482,0.007268052432934134,0.7210210477065316,0.13896745019526663,0.00397989311880182,wave
0.9178567241863964,0.17514713819255506,-0.04114931445621803,0.45634615196678985,0.0980490240311228,0.02770288855579536,wave
0.7383490480731512,0.3200531658473873,-0.008923415422144892,0.25744210623618324,0.07910452271170548,-0.04308515351281291,wave
0.9295542717158134,0.2140359869848047,-0.003757064497948127,-0.043808771314287495,-0.00129039365556885,0.0015015739582041087,wave
0.9838192933052075,0.003293029641284778,-0.17312013034449256,-0.45573203727434375,0.046457379065778064,-0.10761917723045902,wave
0.721942851171488,0.08828135382929976,0.1494938227453236,-0.6051955825549253,0.19557095435698618,0.04382278227514678,wave
0.6541268174667489,0.18141542478072528,0.0041325632270618464,-0.83946587128088,0.03597722144987667,-0.07807466112209298,wave
0.47857098919782826,0.2309998983165555,0.044300213044737524,-0.7679113774985149,0.10947399106105404,0.07517099142144995,wave
0.15690370861559716,0.19434115111001043,0.09515497705740428,-1.1012380216336963,0.15037219865975993,-0.016506004698322516,wave
-0.04702384288105521,0.32189707897936637,-0.10211624575603002,-0.9085756238114252,0.037253866599885374,-0.010583349096558845,wave
-0.41138147455208035,0.004889813596137521,0.04734718990352285,-0.8597603599997923,0.10923552373905417,-0.03138669530422528,wave
-0.5661960291801525,0.21435879365051602,-0.02676410908987936,-0.6551260847202325,0.14689577687553276,-0.01440194369610382,wave
-0.679256380116392,0.01820207746128452,0.08467707752164938,-0.713269549524268,0.10062496609536252,0.07092656725740183,wave
-0.8709020102761561,0.27597122954841685,-0.21272274203514954,-0.3913060742828201,0.24342015278333842,-0.12439043282675398,wave
-1.033581039138217,0.19055412855579973,-0.0099094300241269,0.0056442496975694645,0.01657003705609024,0.06384826930440939,wave
-0.9770645757716085,0.24196099720241182,-0.06028206557839616,-0.02971259012171594,0.15293642649419395,0.01690117405508541,wave
-0.887206873972999,0.11361170394102339,0.04322629506341555,0.1310235618777958,0.09135991313017679,-0.06035108239286078,wave
-1.0601368908630948,0.3279464931657751,0.047004418736820215,0.3303915649197472,0.13859600774183375,-0.0537656196524619,wave
-0.5797751441078973,0.30417246640588513,-0.07076258948220261,0.78962055298386,0.1220653575849623,0.08381965136041016,wave
-0.5243430258720468,0.25835443030118876,-0.07121738641760436,0.68300368331753,0.06334219014450018,-0.047275343997136565,wave
-0.21110559058548553,0.18704827531365592,-0.011066536855732945,0.9300629577452368,0.11144981962296702,-0.057667525529797974,wave
0.11972469236452231,0.25798572852951324,-0.08966422273152082,1.0437313187038961,0.007104927430085645,0.05686572711823647,wave
0.03385528762859143,0.14806036281738735,0.04914294527201998,0.9522354417395995,0.15903204562260725,-0.026572727567960752,wave
0.15986202625586746,0.16590921226539201,0.0569760357198647,0.84178132584169,0.06863432770243486,-0.0783929712682728,wave
0.5123800495443998,0.24283166923752375,0.019548173155329085,0.8585532359715704,0.10226113544999914,0.017335498880245995,wave
0.5931072822394586,0.2077156496217717,-0.009884520123930606,0.6622885864129967,0.10255989509405428,0.12557782757922117,wave
0.9652249028476066,0.1406188591931295,0.043597538950004594,0.22544769931029834,0.07491079035942341,-0.09200388722528764,wave
1.064804949523974,0.18343685896823678,-0.25322460852196854,0.489824789081199,0.031376722605794966,-0.0016140305524735164,wave
1.0526868360828823,0.207857702971915,0.06820694900626313,0.14092854299332253,0.11614872518088341,0.032027146753738675,wave
1.0110940183065253,-0.012873409441481215,0.012617790366196719,-0.26015100644881395,0.09694980140723083,0.006153910082809058,wave
1.0627181188597374,0.24581681147886988,-0.02224748967782654,-0.46065638526677527,0.1250120234718285,-0.005656402625787021,wave
0.7402466298141382,0.10202787752831932,0.2046862195719558,-0.7894663249930728,0.07331998467804166,-0.06496081817229121,wave
0.42734748866846894,0.0846667596794255,-0.06749340187905523,-0.6685158171107538,0.1610410649406524,0.011639337147008183,wave
0.36005560930685154,0.03126556528892896,-0.04030759890650308,-0.7593268775333575,0.056161310939407766,-0.03783819885079632,wave
0.27267492493442463,0.02061075021321096,0.1991553302204734,-0.9822760199256839,0.18560201420089464,-0.10949608524892768,wave
-0.29263457801995707,0.06445524968877109,-0.08320613048498567,-0.8792060925725309,0.012618174508586918,0.05972961102568654,wave
-0.4700300157869566,0.12909790423695094,-0.05501152829365389,-0.8834401900090267,0.12173850322784456,0.047919290992102126,wave
-0.606583791497643,0.39532591375265685,-0.014702542343084999,-0.8951185022567277,0.12377153412633118,0.0025830488425539902,wave
-0.8255627394975296,0.14741203241047962,0.08407344821295493,-0.6132989970185357,0.060222146602955884,0.011453734410285129,wave
-1.0366987800874916,0.21777501062680316,0.02078025073533134,-0.33217225774411246,0.12121969689305064,0.05371590063577807,wave
-0.883193327326151,0.24004813865063288,-0.12926253471522628,-0.14147779778202685,0.16397593348800793,0.01121698283890413,wave
-0.7551777112127244,0.2131065186215849,-0.053216856312718955,0.1377345672898748,-0.010840941967703216,0.04520087773806572,wave
-0.8947994771134221,0.19225565392740065,-0.06073544332122114,0.3956433873714815,0.12513724037454074,-0.014874110043692507,wave
-0.8722383114416299,0.08047062364007554,-0.007722104522304558,0.6154019520721873,-0.02466354101650388,0.06559918692869733,wave
-0.7530065829965638,0.34509275482792123,0.04258436586298291,0.8066394709177047,0.0517167598238396,0.016039286296634196,wave
-0.3494694067572565,0.38071966436378857,0.04182057558879721,0.8208562507063615,0.18145831824504727,0.009702597180293702,wave
-0.017489427352880865,0.03173413058773142,-0.17760117540484022,0.9200883989104525,0.0709108983303973,-0.0635030544356016,wave
0.1753939363340434,0.09759714091136205,0.10639409875608562,0.8633315872532492,0.04130600177955138,0.014347792715085437,wave
0.37502662078748794,0.17201896576229941,0.02525688459966235,1.024698312314642,0.09010311355076592,-0.041597745874722564,wave
0.5391833653122845,0.10354622050898088,0.13845320475939063,0.5908489276839248,0.2033953169081776,-0.03191413632642471,wave
0.6726151191962206,0.25059655534558656,0.04441983272906719,0.7388488361904263,0.008415887639698694,-0.04076878141580606,wave
0.9978877556483005,0.12717277975933872,0.11013229577357622,0.5434182828486785,0.04743450441803278,-0.053311746594961254,wave
1.0785589455530087,0.4165056067806603,0.046654531145012695,0.12938183633511763,0.17487158415898132,0.10623857015084809,wave
0.840806134280125,0.31905485943435963,0.13462257562027483,-0.35633673469041094,0.19288511717688664,0.06656695309942016,wave
1.097452319867829,0.2212574030632215,0.05222506360177786,-0.3814961106180359,0.0948284387854858,0.09601837510721306,wave
0.8775793766863561,0.30269862633197325,-0.009791524644290407,-0.5785350762510515,0.03804736487366788,-0.061144750977778196,wave
0.7881878598223686,0.3105900424357309,0.2272434720446882,-0.8625057803620251,0.20479217509045797,0.0035626874955446246,wave
0.29967096426904694,0.1436052511941757,0.0889037122279892,-0.9524907072832431,0.17972211958745984,-0.06467538126020479,wave
0.054576213159829745,0.11837827554580353,0.05737444210044132,-0.82853963710473,0.13394734938811165,-0.0347847438598532,wave
-0.078967150957442,0.20781430629696476,-0.1276304416538336,-0.9314526765201623,0.059379882553129,-0.045906349170828746,wave
-0.2648297753340997,0.28616361244979444,-0.12883076174635377,-1.0415121584484792,0.09754853295809816,0.06197920032207808,wave
-0.3658988189178516,0.2139060398653418,0.02927154821418534,-0.9978480218513843,0.09198199594775847,-0.019811483905087995,wave
-0.6696701056938011,0.042300351780900275,0.01455211977682408,-0.7050026220222954,0.1165425652307789,0.05341896668470082,wave
-0.9108674340542029,0.11971755560491577,-0.061412256500831625,-0.48388396817588014,0.1725500719065668,0.0302060444794259,wave
-1.0775648329484127,0.1926027136405622,0.014098269961206,-0.1729010152199832,0.14397085205687016,0.11518193760523945,wave
-0.8764861589287729,0.192433439567417,0.1588626928043596,-0.021480093685112174,0.04613119615076209,-0.0739722111569862,wave
-1.0551383956117322,0.39725421767898084,0.06954024745502987,0.33567754416721796,0.1688248225009769,0.06296166198933995,wave
-0.6922959075281149,0.06140120576010019,-0.11410085097527384,0.7119079723165466,0.11565660700065777,0.057322043520036385,wave
-0.724121015564138,0.2505589241835875,-0.011150882714294371,0.7998994523421532,0.1343532897929458,-0.04866894190135174,wave
-0.3316593447421546,0.348911310832829,-0.08049664808525608,0.8665098533903112,0.17332704296393014,0.05035666682365798,wave
-0.18576145490358073,0.4271449745422796,-0.03876999164085612,0.9489798159336996,0.04442098752432244,0.016807248151311443,wave
-0.013699548944246315,0.15956025768160387,-0.041361566562964275,0.9643326865820129,0.09820872106467686,-0.01137381299767039,wave
-0.08239354869719996,0.24080528468367557,0.10651719657143865,0.9414072326682245,0.030572872308439455,-0.02623312035334015,wave
0.18174363876458877,0.2550797572273663,0.14526167454861794,1.0002055409100423,0.01998644477481451,0.024682742382157546,wave
0.6956987615825305,0.2444773807831595,-0.09163209190734198,0.9966029675661378,0.03913586538897604,0.06480315308906981,wave
0.6957508324992346,0.1174346317197858,-0.083692070379628,0.6735268884677128,0.10797312534020646,-0.05535784084012259,wave
0.933355763158492,0.2149363482271189,-0.014037505890533646,0.4491675353839355,0.0553606242254058,-0.01827529684926329,wave
0.8795779148699052,0.23641402960546615,0.030761266818919643,0.08763527238942434,0.12568072321155482,-0.007564961011626116,wave
0.921500921578524,0.2007178466907942,-0.0524567013767051,0.04239539050246597,0.10173568743762809,-0.06978946010962427,wave
1.0831263931068178,-0.008647765837108468,0.13522026788671446,-0.018313329941939904,0.0015747893280973202,0.029567462087920018,wave
0.7516416852178469,0.21604896239734803,0.04240668615184512,-0.4348024440443675,0.1327487792110845,-0.036199516587130456,wave
0.6987566202847886,0.42125310393972426,0.003944704824073949,-0.6745287881796879,0.1405399322795855,-0.0097695175588512,wave
0.5489376423177722,0.16399607312430173,-0.14359095238685277,-0.8058798738151418,0.05030686625825734,-0.022597468595593886,wave
0.3262454782076261,0.12719229021446787,-0.13158158164275072,-0.9501649474055288,0.12100957714474958,-0.03946692528598372,wave
0.046160891479097604,0.23733485597113985,0.02810092502818063,-1.0792468299763494,0.05717508812954006,-0.000352249274027735,wave
-0.15157665059177955,0.2312378210466572,-0.21325956261548362,-0.899231165423295,0.10488351883741677,-0.01078047892840112,wave
-0.36459816353577684,0.3192735165416415,0.10126374096440718,-0.8783927155912437,0.03677507965225173,-0.018592894113933278,wave
-0.5747646407618552,0.07421318440911123,-0.01581538443723203,-0.759684633175769,0.01034467737327116,-0.03642308108401714,wave
-0.9187526354637383,0.27313802525749925,0.32430929695947336,-0.6696532628499949,0.08085914051935157,0.01597623353914777,wave
-0.96688393184264,0.2590422061251464,0.23079162506161108,-0.21501426122783224,0.0938135526862582,0.08268086342461425,wave
-0.8759028267615043,0.1857853463059454,-0.018144906924751677,-0.029552751374371453,0.0801160153192698,0.006994361641956369,wave
-0.897717064657063,0.23386873179216902,-0.010633700253131498,0.1043078112966482,0.04079847208887203,0.04980591074555645,wave
-1.0516985681639193,0.30294574815983577,0.09955815140020298,0.5049658284905867,0.08000504689344315,-0.06951109625767314,wave
-0.7466834924328097,0.28723153800284507,0.17031726099180378,0.5737327180202126,0.11346473762903671,0.007888071964688475,wave
-0.7959330554286972,0.08569806879262715,-0.16380290574360168,0.7232132726168528,0.09775534849387316,-0.05486841594855333,wave
-0.3705735146733376,0.2820158186755485,-0.17863754653546868,0.8509464455979929,0.10912505152996067,-0.07384624637659508,wave
0.06189953999009107,0.19353113949674816,-0.062203480555438145,0.814683158514437,0.06649423997728836,-0.036968570372951814,wave
0.033087889957606614,0.20728740980155155,0.05827375831738644,1.0389442518650667,0.158585895735808,0.05959496672067865,wave
0.2918347003302151,0.20731969910016945,0.049687359050759716,0.7438022695121871,0.04119133317226097,0.047500791433482285,wave
0.674513508648501,0.184975701120174,0.10697714549838502,0.678569238741381,0.12437801485433594,0.012150236102719985,wave
0.627551330947065,0.3191707497107065,-0.11996975283653083,0.41593100095088037,0.1590945546479981,-0.07663502799449655,wave
0.8511371200273083,0.1916282040150788,-0.2316143862968877,0.3961763738433049,0.12404540463744478,-0.00981403256939684,wave
1.0468258971726254,0.08804538716168314,0.08580141953021454,0.14456784900619254,0.0898737886467585,0.015085000445086778,wave
0.9319505281802579,0.16064701440302712,-0.08281962729652347,-0.12869264722631749,0.07358514766685105,0.008776811478929896,wave
0.9148714233286634,0.21786947168104756,-0.2018487864388638,-0.44962282388836444,0.15180438255231282,-0.0921896791740373,wave
0.8945908256284594,0.3229214784297051,0.014506374595938162,-0.6893400354658336,0.028851253736916355,-0.044515892400993594,wave
0.6903830036614453,0.26030946849488334,0.07931756882186775,-0.7150089720144763,0.05149378698101782,-0.0032038882074358318,wave
0.46056557874709864,0.11494647212529562,-0.012205713212127727,-0.9560240610732677,0.08012211172541393,0.0268145454758595,wave
0.15724640077436977,0.44851899166788917,-0.045784838618248926,-0.9499233248374507,0.16188268787559992,-0.10980639105499733,wave
-0.027064108453816765,0.22647753109779797,-0.015936223214590657,-1.0864702613627586,0.11898838180204481,-0.008106198773992922,wave
-0.3274814860335948,0.3275390737999015,-0.037058276240078285,-0.930949472733561,0.05159771207448774,0.007152438493947618,wave
-0.49975434021796944,0.1848285566422771,-0.1348047111940167,-0.7077603011602348,0.08448461473075482,0.04248059942581066,wave
-0.7899711995871121,0.253335924470545,-0.07146806769904318,-0.61368431022204,0.06928384279518529,0.034642879211871834,wave
-0.9048562038109537,0.2839468504518405,0.05212799050138145,-0.5037796720624843,0.06451055038832325,0.029128565940440262,wave
-1.073923691437025,0.32181947117542564,0.03216785413765001,-0.19680103692072207,0.14894447792783896,-0.03999702533509671,wave
-1.0029869772013116,0.3057368305378225,0.016805980596682025,0.007985060118632425,0.03141284353682472,-0.09540010685616539,wave
-1.0397679393995454,0.2872197000072978,-0.09951484818533796,0.2853156051005046,0.18043904278671868,-0.01965263785307005,wave
-0.9665474080215464,0.16849132688058915,-0.018150316213566716,0.48583146309567327,0.14141148450923113,0.05008159126042801,wave
-0.6698164358179483,0.14282539580439388,-0.21770650464428548,0.7019158295091878,0.15454308353018492,0.06967272637622157,wave
-0.4694435744181736,0.23326075103241978,0.017847666388538973,0.8925280394308059,0.07685302439873709,0.03552745511488927,wave
-0.1753672104146513,0.29331280723410696,0.14288577078135675,0.867958993080834,0.09250296404604454,0.02146704114008672,wave
-0.0431125569575104,0.1777279299223393,-0.14741321320421058,0.8984121173010021,0.0283424092737644,0.018981982419298275,wave
-0.05561187467607806,0.2515294321624468,-0.0863493604964934,0.9261942916338608,0.024988906927653196,-0.0030201864598454146,wave
0.24064855455414536,0.11657181899653753,-0.0031203488939083976,0.9854199792992345,0.061058147858978264,0.056389012531694926,wave
0.657624504586571,0.41840967333804563,0.0018016872044446586,0.9173458666216198,0.16755364462065697,0.004305543412948895,wave
0.6014267500242987,0.2570507208354516,0.047263034584340564,0.7378335841247415,0.1443095594292398,-0.03734616425350838,wave
1.0166206420763313,0.1419351697446049,-0.13668583632808265,0.4164230363396395,0.09686802113363827,0.049508311947964456,wave
0.9264650375874547,0.13886147526113718,0.05925672738473307,0.30516376376357773,0.11215617292564466,-0.010856553747310125,wave
1.1320294271101958,0.19070557933864118,-0.27043916316027755,0.17827117144341903,0.08528787471817711,0.026326834183615356,wave
0.8342464112320698,0.17604980779782503,-0.06298845523638104,-0.1776573575048616,0.16782916929139913,-0.023870535309640024,wave
0.945189726489465,0.31168337755299547,-0.04882738424515447,-0.36633957133365097,0.08998237111029181,-0.03249134427487182,wave
0.6666009834805535,0.21864161697440465,0.06333268260712385,-0.6960020872625794,0.1115921046067424,0.0042084115092848075,wave
0.40400818201813027,0.1268368261091472,0.002263085267686914,-0.7630980809494693,0.15730150720710326,0.000641432177184256,wave
0.33696162226471543,0.38904406851557827,-0.14055630538562866,-0.921128963189016,0.06113142575770467,0.023991351768341652,wave
0.1650173988403101,0.20493083315202226,-0.09849931258170153,-1.0930364657190594,0.17793945922484472,-0.013432287665487128,wave
-0.2756527725607215,0.2768839675968897,0.01986800095474069,-0.949707056511178,0.02347692951283116,-0.09181798918851987,wave
-0.5837853351633981,0.13917734925552408,-0.007906734186455629,-1.0001385342464502,0.18148210655563995,-0.021638694179419434,wave
-0.6574128717412837,0.23631156277445237,-0.05791241096357465,-0.8247339858576138,0.08136622080240127,0.03969092335719079,wave
-0.8289157874746738,0.23111099911431954,-0.048083378951197936,-0.5531838293929325,0.08786506260873592,-0.014868803962155322,wave
-0.8836364592943103,0.01103507079038471,0.0696167997159289,-0.31564062708329577,0.0054994914408528495,-0.012319170125727402,wave
-0.9004196558127493,0.40152751104606405,-0.05176925728692147,-0.21494627241539535,0.07726026413111536,0.04931882529529685,wave
-0.9931233015416997,0.3290644460922547,-0.008809124402907329,0.26499847215166605,0.04800967344865579,-0.03559866136294614,wave
-0.7288622915363865,0.16028046838540125,0.2169936588080543,0.46198397095244026,0.06961768273132637,-0.07714016091214498,wave
-0.7594080080145007,0.08977302595441446,-0.1423682636883923,0.553016958297645,0.09313445171055602,-0.008031555976274718,wave
-0.6327531810919061,0.2347561613803552,-0.18518427315746588,0.6476551422230389,0.14788958072364528,-0.024208697562436852,wave
-0.5364237407896574,0.20866976994143968,0.07835896647986068,0.9124262994378785,0.1103801675700313,-0.0483123159876627,wave
-0.1541431137161234,0.23556689485632296,-0.06786430612941033,0.9471956424371301,0.1153838326700557,-0.008768922794934537,wave
0.09423846714339162,0.219157739619409,-0.031823752774262026,1.0031040595285485,0.04522403055772189,0.024575282362339183,wave
0.47129748450752035,0.2506240989305926,-0.07811563781311143,0.8906050912304654,0.055962295519863495,-0.00046442807839078737,wave
0.6443588928979005,0.34473056993918066,-0.025980014076751254,0.6006679357934563,0.1899362509175656,0.015349053634311889,wave
0.6638945703047678,0.2568103205128646,0.15985381120963416,0.5846551080286179,0.06323994826183768,0.09067038492577116,wave
0.931638061656916,0.0950344501090059,0.08021284586181193,0.3742214320155629,0.1828104126028648,-0.017143943077878206,wave
1.0543349005873555,0.3362562852712452,0.08622235118869771,0.22296599751078564,0.08784694005595668,0.01391743173223348,wave
1.1481822488879816,0.36406145634882875,-0.14162270557926457,-0.16584299336878605,0.10011439680717521,-0.025460668129956728,wave
1.0272188187911666,0.5152056734512085,-0.11511537365528693,-0.1774975870840502,0.1535182580114965,-0.04231798599434865,wave
0.8962569200281038,0.08765059667604021,-0.2839078659485427,-0.7632807151873453,0.16359462109693285,-0.029245382670888494,wave
0.6542369947693055,0.22428820131502752,-0.08093808210827541,-0.6303292085888713,0.09445937198604563,-0.023937928576084427,wave
0.4727149396599034,-0.008209870318898721,0.09567031863856584,-0.9234007649902294,0.08058784732392306,0.01797378987735628,wave
0.31610911877198955,0.2553149156379209,0.051694651574837096,-0.8956006697567095,0.09720397757388935,0.11745378933503788,wave
-0.19734795972867727,0.14517997018332274,-0.02215132629521239,-0.989965244344463,0.11689787641160593,-0.03580217181379202,wave
-0.3500521507453147,0.39234457948249535,-0.002230028371805305,-0.8351001934081222,0.14456518434348778,-0.02083126528077313,wave
-0.622791776086172,0.12253850299814181,-0.06888855425754056,-0.8768243013471223,0.10021149294970759,-0.003156150655562413,wave
-0.7023626852027018,0.031081696203273834,0.020475888240178416,-0.7821629327790994,0.13094431490115768,0.019789942435487356,wave
-0.7635770888079207,0.15287362592974804,0.07658782794806149,-0.32048786151373,0.18191798661354705,0.013177540597739248,wave
-1.034625340853931,0.002451222878286252,-0.1615886787410473,-0.23386899854452892,0.11906548061323924,0.06420478969740587,wave
-1.2385166529476317,0.27510994545073103,0.029964768783734816,0.054207424934074794,0.11558264280023892,-0.12131960352676041,wave
-0.9998899275391078,-0.0065083046256320665,0.09324348709546673,0.4080027780355113,0.02405445874549661,-0.11934649350978364,wave
-0.7637953898036064,0.2028457581183159,-0.04151002889633696,0.4151970441010801,-0.03153650684145318,-0.024793908600507467,wave
-0.6419195603084991,-0.007781181985619667,0.07007006121205837,0.7778984398616526,0.11941878646150843,0.05486500937718544,wave
-0.447898927222882,0.1679702195463358,0.2814654444472553,0.8123292284770993,0.09525878843595639,-0.07828240158027983,wave
-0.28165391409695656,0.3643378155804534,-0.010434279298689193,0.954077927474592,0.07426086625426291,-0.15038161698468788,wave
-0.12790307362197914,0.2360647891435795,0.039330705000532366,1.007227896538429,0.11217651020931724,0.028558970310960437,wave
0.024365722370271445,0.3075343401956898,-0.04235985817281771,0.7963779497144063,0.12436526185224975,-0.024748274018403654,wave
0.14463374322956435,0.22106684652031108,-0.13656174041901495,0.9720442098641937,0.15359649326058988,-0.024878624915460695,wave
0.39216359193184486,0.22095342302627946,-0.09741218462163684,0.8464115196580854,0.0560358608794006,0.057483600943937355,wave
0.5987081786400189,0.09083748278408975,0.07034279167873088,0.5510599599665703,0.11742975599304903,0.014828846926515255,wave
0.8661962947527401,0.22338480257895985,-0.1307369782230964,0.5588138548382584,0.09374127858084179,0.06338257555939869,wave
0.8960363254183599,0.3035443416416945,-0.15978721344948377,0.35611486110012863,0.1423441051942457,0.014436400150491815,wave
1.04889260809824,0.11639378478999754,-0.06300249795338944,0.05475502545814422,0.09423878837239012,-0.057855830935663544,wave
0.6894652458913846,0.3424495821246948,0.07319555025098458,-0.25492775147721136,0.08075285557949595,-0.06665641773889033,wave
0.8009141198602202,0.19082939758548742,-0.019692180799688958,-0.4033940750656496,0.12704542592804952,-0.07757561245294646,wave
0.6276726009842106,0.11122304884614594,-0.04645810781156184,-0.6042788542136475,0.14380845835956166,0.03310259173792366,wave
0.5199008333732998,0.29976320769202447,0.004435879751560705,-0.8073477479198715,0.06658274025765992,0.059429841154350405,wave
0.261303442174607,0.17132057642617307,-0.17457074328596522,-1.0315169720541448,0.0969462164323812,0.09246810706931906,wave
0.14385459797028988,0.2759514887486108,0.049470565377503245,-0.9702853161992183,0.047077968317917364,0.04215526661616201,wave
-0.37709230586737763,0.1708241367741463,0.038343503140364416,-0.8620110919085175,-0.024903050874646976,0.058141928876749294,wave
-0.42933459148448283,0.19401738564700965,-0.040930847409572126,-0.9606317737635922,0.11002298157068646,-0.029000816632684237,wave
-0.5923947529866176,0.24935602043342917,0.10059245117964166,-0.5516520244558916,0.1304452678127316,-0.05782079083719284,wave
-0.6345075109407602,0.22908970575900062,-0.11274960989530387,-0.6246797535207085,0.11310334045433629,0.042503966620877666,wave
-0.9866450191591077,0.0004468219548261487,0.11279089932535691,-0.34212435308729455,0.0025219141122816424,0.020884037611970035,wave
-0.9629332525139465,0.08787562599056083,0.015449366559525113,-0.16327158550831605,0.08245752849617627,0.0053722187170446275,wave
-1.1675680626706868,0.29294099847908156,-0.03365525898781734,0.1819269786254045,-0.010917388002554068,0.019368574031649495,wave
-1.153608243447115,0.1867863411098453,-0.001987363536831157,0.23056117385886543,0.16848505538270925,0.016159274122910294,wave
-0.6973540448898599,0.14762686972285782,-0.010726476581094175,0.5688856219770613,0.0456972708940957,0.06419084299267806,wave
-0.5986665598560232,0.06414259847425258,0.1220282896417717,0.6922015018330997,0.16277018047299482,0.06474927924084779,wave
-0.2574157358995323,0.09202636787241517,-0.10766791274710136,0.9404505921352507,0.1472934821842073,0.027211017617017354,wave
-0.26521745058148155,-0.002179863996194742,-0.07625192391465983,1.0912347513741367,0.05497048237319692,0.04229014362814641,wave
0.1798673756373805,0.1898719281298467,0.10363028920724798,1.0563906325347012,0.04336075243661275,0.025703127621238792,wave
0.5621487889337586,0.14015624194189533,-0.05955349351838593,0.6897508212601329,0.11751851081931691,-0.023058486601730946,wave
0.6400810913269417,0.10334121090146849,0.09005330773315917,1.0056205871607453,0.05778379814084645,0.037828233745657004,wave
0.8094896330271345,0.1931876574832047,0.16994359830087097,0.6530177959208205,0.10512423210791039,-0.06972475344296308,wave
0.9152682310982473,0.23639706308527383,-0.04017950269416337,0.3271334290730942,0.07585862045965408,0.05269457761479416,wave
0.8300936377018588,0.4093197932209945,0.06813623265753053,0.17531268693247384,0.010942079276718336,-0.059726146988301754,wave
1.130936406520233,0.04881165804367865,-0.11536922813398585,-0.07840404365741184,-0.011523400956222951,0.014290164339736648,wave
0.8773826580692541,0.3159381043300522,0.07547332980678093,-0.4120499261164632,0.11133421242472986,-0.04225769792130795,wave
0.8706205802352577,0.29731015610150724,0.019942398598676712,-0.552324993387962,0.07192211268346874,0.02766944915372134,wave
0.4919249646506638,0.12209072606232996,0.047303828216021526,-0.8221931871311645,0.07234550915429339,-0.001696261296395444,wave
0.3159377726667804,0.2203235954586031,-0.06455720720353951,-0.9414050671714213,0.13479319195468928,-0.07973779790816662,wave
0.3346673686235972,0.15423667506623848,-0.16610834155671728,-1.0501870705665735,0.15867211383162225,0.021034981550923943,wave
-0.0988004488764966,0.2185688580418739,0.05032520647495048,-1.1412125217243017,0.08637276393190954,-0.02889603884163553,wave
-0.16978067041936465,0.35091310134045506,-0.20634031524794547,-0.9344720999891308,0.08297006465450693,0.04405733604066846,wave
-0.5533579671163997,0.26056062326313134,-0.031735049224253485,-0.7795581612402074,0.1250071516556942,6.628443672036147e-05,wave
-0.9244677743711001,0.2508608373233442,0.09411818664199698,-0.620812530653681,0.032153221515021244,0.01977104926940191,wave
-0.7973925463998275,0.15696906800453578,0.01918977358730361,-0.38054576497731285,0.11115765273738486,-0.0478784477507606,wave
-1.0339171439573842,0.05159433350756648,0.19483426447898133,-0.190086912954828,0.1275942985911077,-0.029466611571368095,wave
-0.9296173348489836,0.17915317894595922,0.10251091525817735,-0.021220972250036628,0.13401151042088147,-0.022931931805054227,wave
-0.9561467662826526,0.3206608154863915,-0.06538983883255765,0.36849397307415066,0.003162364874876755,0.04283512401212779,wave
-1.0094545857996342,0.047283214341035246,0.002731337985143867,0.3826408143263301,0.06193223650955297,0.08386885439027447,wave
-0.6792530740664301,0.0944910631823305,-0.004737070254443595,0.6282822118464789,0.05608683735882667,-0.04025858758714382,wave
-0.27109523778865974,0.21262677362340682,-0.15821767633461273,0.774898696981064,0.10499434772046065,0.05384240723288402,wave
-0.20435593805806265,0.10153452151527376,-0.09403989164843533,1.0753004689529602,0.12403722898839921,-0.10848387088628511,wave
-0.005751775300546803,0.12074765528847875,-0.056076090697986025,1.0942788514140076,0.17483552037229907,-0.059709470054614466,wave
-0.09587784561867749,0.33931812579349063,-0.021596052035023225,0.9751384146233323,0.05035669994572273,0.05519667733509536,wave
0.11840371496543511,0.28393491142316024,0.0937477492506925,1.0299562267653366,0.02773973677938872,-0.012814041212578623,wave
0.33235871302517983,0.2872824351005635,0.16350663945275196,0.8758750922375792,0.13331348360217615,-0.011795826465606197,wave
0.7369824418172661,0.1033843276629583,0.13116934492726612,0.7806900639257193,0.12889892618197787,-0.020344262225218734,wave
0.83373599323256,0.19206115755942973,-0.10921415934287332,0.5887365816244146,0.1288681762553331,-0.026737833542216156,wave
0.9966083927971715,0.16995340512792964,-0.0253676077542381,0.500020454369347,0.0935670276823972,0.014748572785441078,wave
1.0685334848128392,0.09943986243105343,-0.034516470544979645,0.000521912043042895,0.17034673729458755,-0.07486288225893223,wave
1.001489611499077,0.2360164183945767,0.04892545350763276,-0.31662320402295224,0.07579407527075913,0.06404697883333638,wave
0.9523756239880374,0.14623542422201835,0.06863535550145332,-0.4379299287091942,0.14776346186036027,-0.033271114906473026,wave
0.7333247684510887,0.2655403829850237,-0.08388926740257363,-0.7525288929752709,0.09806285525052286,0.036095174271907074,wave
0.42683556237997455,0.09298084371056684,0.006783851391693768,-0.6898920280481868,0.06958246176603312,-0.0634999298696938,wave
0.4208896361057005,0.37190406128418213,-0.20199273321561365,-0.9773775509051918,0.12962651536588807,0.03344200652731091,wave
0.005159006702600534,0.11036673414079383,0.14419450058018898,-1.0545030295377353,0.12048180593419969,0.033597230390724875,wave
-0.28471825857761446,0.2219302337200436,-0.05123742406766936,-1.0286907291061773,0.11784863796334631,0.019210103600294827,wave
-0.4516755266979978,0.2791859310388068,0.005586393984449697,-0.829127125555255,0.10406392110280994,-0.04972142608998961,wave
-0.7395094872374395,0.14293595697998873,-0.030964971398806124,-0.7772206566922831,0.09810534591415847,0.012477409479903851,wave
-0.8619152927958988,0.28524686434329505,0.11460275750134151,-0.6362833421352082,0.21941859964352195,-0.05915280923671945,wave
-0.9040630298934136,0.07708164021995839,-0.2837506441397379,-0.17882986265895506,0.15921283225980865,-0.012638162754809269,wave
-0.9605449390245855,0.3452117699182561,-0.0016610342325908988,-0.18164000997385746,0.1361413447492756,0.0514706550477663,wave
-1.0769647900570132,0.20141492649657583,-0.010581875749769789,0.16315650243667776,0.10558995791016942,0.0398350963535371,wave
-0.9631831603106873,0.14035885920311206,-0.04536363875916828,0.47001395828341597,0.15035786002983348,0.0007591471270216562,wave
-0.6743981819910055,0.17008182275725656,0.17262265456356327,0.460356290817026,0.12589973881957262,-0.048740328796142096,wave
-0.548470518717822,0.28089192693927195,-0.08873294588557712,0.8494396720085489,0.10131023763870178,0.032279385608709674,wave
-0.1677605009445204,0.1415544708149562,0.07717961772356613,0.8214059897979766,0.08482178373670425,0.0009690618849012607,wave
-0.009864344310353865,0.12506423105772224,0.03562527887060836,1.0740682919066462,0.0959541331168656,-0.11601577991152118,wave
0.24230646854049914,0.17784634024162618,0.1261519252535516,0.8955249126313485,-0.05852128679390278,0.03913149131582591,wave
0.23648014983379312,0.0823037887230032,-0.06671890847775054,0.9961936605309081,0.1105300419648821,-0.0012116416934846075,wave
0.6744965656545574,0.3820543907941816,-0.0732968899123759,0.9119969284974285,0.07557619599448202,0.06012256239915362,wave
0.7765208022983385,0.14336054087852768,0.10960699074773986,0.7096334544220142,0.1796334999141442,-0.054763525942140234,wave
0.8593144426619873,0.28316167861804037,0.04253213083301104,0.42991500794620446,0.10096720354058772,-0.15883519065980004,wave
1.0039833174677029,0.22094700836477726,-0.15449373466767588,0.13646980074040982,0.04055182902325191,0.013954192917259259,wave
1.0899002664103465,0.1015465949518032,-0.053930501446327044,-0.15366498354116548,0.09750599229359412,0.014578183834098639,wave
0.9885515811501818,0.19940452907872708,0.0386382653848061,-0.19826158533959642,0.04769394574687479,-0.0845335813803226,wave
0.73232487446275,0.2784002779310748,0.08377642215465891,-0.6420661821389338,0.12367037078562333,-0.04892497729333032,wave
0.7224742866670513,0.18117386649136935,-0.06792306531929551,-0.8651525657261334,0.11454736821697428,0.13776088718599508,wave
0.37012498490996204,0.3193112945851028,-0.2914255989816941,-0.834431974399136,0.1478919815554134,-0.015280530707690169,wave
0.21282694059780227,0.3021515392781864,0.05232231857370332,-1.0611728373097147,0.060455910415271735,0.03654794881881081,wave
-0.09440522672842572,0.29189148546583293,-0.12203206899439759,-1.092951742496949,0.10170040481140735,-0.03253299136841919,wave
-0.33699484319718165,0.15403432277270032,-0.20173387981224114,-1.0934161732276457,0.03174891022866824,-0.10451514494265784,wave
-0.46891060370649695,0.0920157552218513,-0.2832325924984141,-0.886379088837893,0.13507473909623574,-0.008512912339795276,wave
-0.8442973690569041,0.13864123946372056,0.08139808601977412,-0.6805723926509676,0.1259435590220061,-0.01328022801430526,wave
-0.6920797989453062,0.21962409406667205,0.012861745040496654,-0.43822911747476645,0.12479025105137855,-0.019993911933418575,wave
-1.1570365191112733,0.2545786713532356,-0.022565638071225164,-0.12739030952636646,0.10008095156784706,-0.005732041775319623,wave
-1.0592529845261736,-0.017157140476044747,0.13890243629627616,0.0847413699382331,0.12073864453943955,0.013213413582281827,wave
-0.9216466640424867,0.199188679838825,0.06373246830230726,0.2654403646757138,0.1802169554154298,-0.00750584756269033,wave
-0.7967113463618161,0.21580892253231845,0.16163000427219165,0.4985730006725516,0.08574528714789931,-0.06320030839736819,wave
-0.7057301226606576,0.17224557436844484,-0.13927354721669966,0.7693650969892453,0.10693225918550422,0.024309239578096945,wave
-0.4964566223040939,0.3291273839015879,-0.0034550623953963516,0.9985757204162453,0.045693685040929514,-0.09746858776612116,wave
-0.2125995753767469,0.2421780074250871,-0.16167133749480145,0.9799262829873492,0.05658695192008339,-0.10251787286421002,wave
-0.023106947745768523,0.3310191908080897,-0.022938233185546723,0.9530869145789591,0.10489066465466537,0.036959024735078394,wave
0.050702027213535686,-0.06248170563741118,-0.03918767653868664,1.0240205843946224,0.07881201589886484,0.036453182250118225,wave
0.24791504740210374,0.4549009708717722,-0.10177643090769531,1.0926081455158538,0.0773292945808073,0.017558273381354204,wave
0.3511727015284306,0.25310260948942104,-0.1027403551526011,0.9503106763414746,0.01021784136849925,0.017083011597631318,wave
0.6248914565360788,0.21488768039176911,-0.03732682459413141,0.8153062526730184,0.08349549041492814,-0.013565748903414873,wave
0.8288680882366957,0.31815677164191464,0.06445184916452915,0.5510781083715689,0.13664145409108724,-0.06082904020678548,wave
0.7990784561792492,0.4343654052812625,0.09282456913443246,0.14559771360993365,0.036288394046160244,-0.056076507371251375,wave
0.9255833503983646,0.28707466445884033,-0.049653173548196906,0.012481724456965188,0.15242413255252962,0.035467625722765864,wave
1.0401609459994916,0.294881309647162,-0.1153492425984784,-0.11651195996544778,0.12438874105421692,0.000972912775944156,wave
1.0293298428019217,0.21306900244643825,0.026784363786633333,-0.4676905830932997,0.06328833390144811,-0.006925612230361238,wave
0.6983345218094607,0.18584742466330517,-0.08235349706258495,-0.6219918533989419,0.09292351813310763,-0.02119450211611763,wave
0.6211837366421589,0.1524204555995099,-0.05182526388612024,-0.8699629364164537,0.17991609038205167,-0.01525944227403759,wave
0.12370221096487413,0.1173888008285458,0.13252760904370375,-1.052036931864853,0.1366773906752933,0.05234558972440698,wave
0.13001534409207438,0.1312985900300503,0.08271154285657681,-1.0102797991549475,0.1004391827449074,-0.016762204093401338,wave
-0.27155347017412,0.06494440356570169,0.01579743122514517,-0.9506544126878,0.08811583415195079,-0.06705323566507844,wave
-0.403149177446761,0.19241285493149768,-0.1271919001112723,-0.9665376398485636,0.10383045352258298,0.03718258877700866,wave
-0.6730036371317591,0.03153324227736132,0.02113965674706589,-0.7850170828548015,0.07441182210288483,-0.010243833193235862,wave
-0.6881308536185722,0.2190916524143711,0.10626572907875265,-0.6660629843207683,-0.005237475285950727,0.0015697932766388222,wave
-1.025911986883752,0.19636693919576584,-0.03756336657655356,-0.23344056266489854,0.20210889552673655,0.08037891531997553,wave
-0.932618483193015,0.2146935298386688,0.13511140899867152,-0.12546860166648585,0.10776624995997008,-0.0010280278675253594,wave
-1.0151325297441036,0.14778684299800077,0.1292745289518207,0.3048754495459967,0.11990736325612686,0.014459183655936268,wave
-0.9302431708167792,0.5076860370180504,0.16637328321434736,0.5576581281764839,0.09710461250615457,-0.05894617456491627,wave
-0.8002168717839508,0.33601159001803127,0.030524312653135294,0.6153852053865589,0.06324415996377061,-0.010983472617548007,wave
-0.6826778409406276,0.07554574999152773,0.058739169980601226,0.7005687486132214,0.09070377595256147,0.030476302260430063,wave
-0.37667690147004174,0.22328680874268983,0.141418728833109,0.7183269695726879,0.020030261890284437,-0.07776868669206212,wave
-0.1341419838966888,0.13919938570626766,0.044739393706897564,0.8445863065205669,0.21385432490266523,0.01004225465578548,wave
0.1520011865251782,0.0985520273292586,-0.05012341077902127,0.8544065313333802,0.0382744000788802,0.005039553632240315,wave
0.38371751944865956,0.06599279288760651,-0.04485428365278614,1.0647637200921725,0.04840168580764103,0.0020643727793719694,wave
0.6779099854524387,0.2432216690759254,0.023855495377373918,0.8129960805906519,0.07798703978067999,0.05185794493291216,wave
0.8741823440727665,0.1318619764930426,-0.1290561421946219,0.6624502542679325,0.16440378624261887,0.016721925742426074,wave
0.8093502908330321,0.2967826024025204,-0.014325891536419263,0.1827412422288816,0.10072544996313271,0.07390359491782221,wave
1.0740590334735272,0.29937822145304394,0.10965471182302539,0.0398032521116536,0.03819321019847688,-0.04967947577970181,wave
0.8767454702382128,0.33739143852114495,-0.21912538511652813,-0.007315048263052376,0.16271691803786698,0.006796228360917399,wave
0.9972540108635342,0.11476132339258965,0.1534482101794515,-0.3166876431830482,0.13655003133927407,0.004223339319497372,wave
0.8821461330672429,0.24753656106920102,0.11223742187031596,-0.5868371879907293,0.12692174786082264,-0.05346272468775401,wave
0.45709670614153874,0.2632454216642301,-0.045976461583047634,-0.7049617225091215,0.13578671205854204,0.04781475010456731,wave
0.44318166377049945,0.15258218248960354,0.05433908278718096,-0.7373890872888375,0.21971809502912254,0.1162336652926409,wave
0.14430901736534207,0.1228228042607125,0.0003147726906326633,-1.0036634033447702,0.2092547447518056,-0.0008503037241915498,wave
-0.13994674577424981,0.3609520665775973,0.12299903684386831,-0.9910084124845294,0.06566423284983525,0.025251054413688346,wave
-0.18002298495371855,0.2227495875732054,0.09826831427699412,-0.9297960551375387,0.18119424964055764,0.0042259237907663625,wave
-0.6109028152742898,0.2635967750711738,-0.14000707231830092,-0.5988771413644419,0.11915840948794502,-0.03567923349535879,wave
-0.8209156899871193,0.11779239881720727,0.05872624134641768,-0.8822365167032208,0.12495479080688748,-0.09103801389010081,wave
-0.8790298123724902,0.07807155334778063,-0.020562785364324765,-0.3942159887619555,0.015386458417833565,-0.03528867415476826,wave
-0.9063689375519819,0.14305502255078897,0.00828325705180999,-0.23400115883222117,0.0914807117305902,-0.06959791904758657,wave
-1.0136510748017007,0.1875978612610003,-0.07281719009698155,0.08872875019007169,0.05935882048317176,0.0852051039029559,wave
-0.8420307984697356,0.09357799931826512,0.17481370691208353,0.21879033123155933,0.14140294074466547,-0.005755484696161958,wave
-0.802045196808938,0.1990155191349617,0.1040061819902576,0.5134960652246786,0.15355402502014026,-0.017295966452358535,wave
-0.9135036825766301,0.031149481193150003,-0.07397711639729673,0.7894904080442764,-0.0037243175508155646,0.0444576912393903,wave
-0.5436642483546404,0.08799525775301278,-0.13346106069102326,1.1826097242277727,0.09889825679978648,-0.0560875551427944,wave
-0.3098387938446785,0.26709112482768754,-0.038567263097784826,1.0480984819792363,0.1560930752397126,-0.03834320190022762,wave
0.04793609534294174,0.26037905202778944,0.043450264609130575,0.9151934401969491,0.09066605188432776,0.0034036134624310516,wave
0.10287689914234806,0.42758254276476376,-0.03307748960230527,0.903421736713604,0.08956658143897671,0.030688542789495434,wave
0.30382308842638617,0.1147775357002676,-0.051016081365021726,0.913437495709367,0.08436657771338214,0.018772792881362643,wave
0.5155500662555261,0.25181017020299756,0.014945608966330954,0.8246428229282453,0.14289494126456714,0.008378505290049515,wave
0.703494324127088,0.14707989901884871,0.07707502096187874,0.5700509068994859,0.12767847655338968,0.05811297987528335,wave
0.8951663485580236,0.11307130130113563,0.2381713531732546,0.4366243286500118,0.08713499996911052,-0.026979561036856583,wave
0.9788331435495861,0.1989132862965028,0.0827236107657423,0.17114455095039727,0.15410561564965705,0.044745527801341264,wave
0.8964889887229943,0.21373524794070362,0.11598399663883444,-0.00919632361713834,0.09354829424351081,-0.08160074425132087,wave
0.9795358343451388,0.49181735550600925,-0.050596619898785535,-0.29639068378927064,0.05741689128328034,-0.045247391646903314,wave
0.7792304404812248,0.1815854184316798,-0.10258681059694763,-0.62523878232751,0.06205146505483276,-0.09035206974659082,wave
0.748386251365398,0.08698212705153166,0.006233134961912297,-0.4700418672043684,0.0510629581845117,-0.013742265033489612,wave
0.4974701070617249,0.2273010717494386,0.010716991525959622,-0.7128340317889172,0.08637949916981565,-0.002313060863317127,wave
0.569046380301907,-0.007464003754636822,-0.10785127413645973,-1.0269576891626673,0.16168621391680965,0.005705074611325996,wave
0.06008078160554204,0.19080432173957343,-0.017529452990401286,-0.9707032530849753,0.05974524094847456,0.0030941676443567608,wave
-0.33158258532753077,0.20160252822951605,0.03993176017191309,-0.9398126480089359,0.10942378805090515,-0.0463776665405864,wave
-0.4473017601852505,0.27946003829452115,0.036039339501808015,-0.7818602824250714,0.06716553271862935,-0.009512042220660785,wave
-0.5962925207439994,0.2973622249427847,0.05042878533842724,-0.8433064610351425,0.08698454793642812,-0.07487233343028743,wave
-0.6528358599817032,0.14964303810922827,0.029096473013744295,-0.4629059817239274,0.024497939400737384,0.06816144875661252,wave
-0.997413662043632,0.1849385985370067,-0.05070086592700558,-0.40015558484200164,0.08897308854217313,-0.01518130364490005,wave
-1.1536219103515621,0.12338791693893292,-0.05139006266488432,-0.2296092663245438,0.0903147310097519,-0.024444305952184563,wave
-0.9054980822713522,0.08719374451923062,-0.1198951397993876,0.23201355096482812,0.12701439720178478,0.07944701642220414,wave
-1.0524724936057779,0.23098947793806346,0.1784775039185095,0.5338591855346357,0.11116404566276854,-0.062112326677461464,wave
-0.8254470266187784,0.07264144514034007,0.0013450364619293008,0.8822806992118019,0.04008039375239774,-0.056279355701598456,wave
-0.6238725790423156,0.1585373099428137,-0.022485305579485193,0.681441095358935,0.15420991220217714,-0.05481101624342826,wave
-0.3822303502093854,0.10048260401007626,-0.09287920814524588,0.9968087258541005,0.11051515201109978,-0.003393569084974095,wave
-0.05896071597707307,0.25496831862902597,0.29356579023277785,0.9508098894438928,0.10991967585887434,0.02158158148187987,wave
0.05951373345586648,0.38014300992664884,-0.10733280322228955,1.0701258848756492,0.09954088233074306,0.036983773405891686,wave
0.34789407966269725,0.06984120171966687,-0.04288479256060734,0.779867802222897,0.07411212763888902,0.12859976587474845,wave
0.5966834951962763,0.01469815171024308,0.04158368362860605,0.6751366442981008,0.11089011698743631,-0.11247162271003819,wave
0.7967912782199084,0.18751131146499328,0.06002129657442778,0.5459023195420853,0.12377942179642913,0.03043677945622085,wave
0.9241953404866046,0.20156977959577585,0.0957932055215684,0.4126797476892027,0.012655215432722258,-0.02785652862861156,wave
1.030782360936708,0.2218659306757298,0.18076085077692633,0.09549176837954422,0.07306195813269523,-0.029320757444438673,wave
1.079763063913372,0.15536794847656551,0.05061576554607124,-0.03011759151633911,0.08725265147982053,-0.03098860641269388,wave
0.9777318336148575,0.17993607011745683,-0.10560307999666677,-0.24267559259551538,0.11280853028471391,-0.04543848354039867,wave
0.8655308069478778,0.23675104105406022,-0.025694512512178153,-0.5121589059976339,0.15966555029635632,0.0842262417301726,wave
0.4900060786331414,0.3040430892644839,0.0307832372513885,-0.599567194403047,0.06141295927016088,0.04211486635069514,wave
0.4389065090341265,0.0044951229681717275,0.2068226041505824,-0.8593862049568847,0.0751019076591079,0.0011597989278687411,wave
0.23910938350153452,0.1631060560968538,-0.13978054784242971,-1.1032488280250818,0.0743732944676725,0.06755078762435002,wave
0.008823899476332733,0.22138087939410636,0.12025765052252275,-0.8616077413965023,0.05992362049477293,-0.07562644826494379,wave
-0.3843432954469985,0.10820238953892641,0.01799143695464168,-1.009571370571269,0.08264067524438688,-0.06653525656654631,wave
-0.6114388286994125,0.37311696317673,0.08378305352294807,-0.7470462549232841,0.13854011099939856,-0.10889838660973439,wave
-0.7976880646036741,0.1364590119771263,-0.0101994716635932,-0.5149274686058076,0.04730822523178272,-0.034970727006164375,wave
-0.8329579163838652,0.19587073129927174,-0.08424326301263264,-0.4168694891677964,0.12139071975764516,0.008084926335237646,wave
-0.8715398066894027,0.2556022096842291,0.0750872779401332,-0.37213681527277975,0.014904888499083224,0.005142928896616704,wave
-1.040232226929848,0.14087152111981055,0.06544310271056213,-0.05976963907932543,0.0719331001778897,0.007467095552994023,wave
-0.8678716216739559,0.015342695219558278,0.0972056965739722,0.41680203331954535,0.0835255349891007,-0.07055284155330409,wave
-0.8427947820888877,0.1571345473083467,-0.001330463537863531,0.501480299746242,0.18374298364570324,0.0401577371307011,wave
-0.7081111283197307,0.3029440555927041,-0.05998220233198494,0.7263067035919435,0.0862598847623656,0.011981375911949898,wave
-0.5118559749857365,0.16631048732148615,-0.15587869950238417,0.9472011457397493,-0.010062173672545915,0.036652714073299925,wave
-0.17899344744929285,0.11535656985410214,0.08193732681394064,1.0369271492470615,5.555465693750372e-05,-0.0946381088795026,wave
0.032557781678706516,0.2925672209502722,0.04238894824439861,1.027879981238546,0.10170147931733406,0.015574542939889495,wave
-0.1187765239917527,0.15581510727591763,0.0703142542220004,0.9027235483239999,0.09058987806135894,-0.008805621697993133,wave
0.21392225865437114,0.2110886382828418,0.053320731789931256,1.007957066461297,0.09482065732971097,0.004149370940625499,wave
0.5441540418675762,0.37045920932973775,0.016540366029970426,0.8540557906943059,0.08930624162226806,-0.006546290256306326,wave
0.7047919112290777,0.08918875417411308,-0.13820175686924377,0.7822170640857578,0.14851581008941409,0.05641198916344188,wave
0.7699887650274142,0.2976040719355947,-0.04836171395554367,0.512035214391913,0.12093799800637484,-0.04379212032475551,wave
0.9592951686551024,0.33994864269723435,0.08417807747840128,0.13943479751991025,0.11102917688686804,-0.04028998274421024,wave
0.8463326846763236,0.137134569492543,-0.10512200297825028,0.03960921483865912,0.03645241394538587,0.05051372934180079,wave
1.0899546517716532,0.17224863811397667,-0.25317693162508137,-0.11763451976877812,0.08107101283934229,-0.002218072775578082,wave
0.866070904423375,0.09636907526262298,-0.0227106007780926,-0.4654599308262336,0.14493345801695873,0.06892336777269041,wave
0.8521329915008483,0.1796538858919695,-0.01417575540275386,-0.594789378102408,0.10188482865619615,-0.033575610349027285,wave
0.49288173250094475,0.19634100256570688,0.013556341641470916,-0.9426410534592458,0.13297657347945693,-0.002738918016941255,wave
0.2627506191829626,0.26596499980823707,0.07285186435145362,-0.9516818263376539,0.1883255900163817,-0.046120649242197664,wave
-0.012348458683071425,0.3090183471020447,0.06376058122312087,-1.0603964382591942,0.15193030346044084,0.00036813407117835677,wave
-0.10354123553206433,0.1251903935378353,0.025876980524392162,-0.9068610729805945,0.10465791688498713,-0.07392734684993994,wave
-0.5048268548504056,0.0032674935774005542,0.11955313880867094,-0.8978197116762195,0.07445054149021366,-0.024381671047748143,wave
-0.5837688520662705,0.1978755220723758,-0.15189697808133149,-0.6924385907354734,-0.02767747980279492,-0.07181269324640589,wave
-0.8584174943638847,0.22935375299686406,0.05045818144773903,-0.46334561750638337,0.09158075387635738,0.03469616165956291,wave
-1.1360647520389222,0.2249417687685042,0.06265383633369424,-0.27620319690916934,0.08369937520915754,0.03582946698798258,wave
-1.0524105197278448,0.16733267524909562,-0.12395622860802397,-0.06871118247831802,0.11951830971976879,-0.08651313652421726,wave
-1.105092604850735,0.21247520996639346,-0.15028706086823895,0.05977866918223787,0.09230473865126562,0.06669428727502864,wave
-0.9110223506475791,0.35154448083522477,-0.07459421264756014,0.4045047320557028,0.08398074702816029,0.1248707563209927,wave
-0.9008722560354789,0.23817341689625093,-0.0661541442515292,0.57018076165715,0.011030053474638965,0.0023003193368170477,wave
-0.5055130204197545,0.16266315749969157,0.07534194635024308,0.7670072261975337,0.05300160854249668,-0.032055713011232244,wave
-0.3843745909146773,0.14998021829040042,-0.061453878369109496,0.8894633422709965,0.12383255204002788,0.14121652955015232,wave
-0.14563676116038055,0.18301476423222696,-0.0856348518281204,0.8937974563450216,0.18579538155663472,-0.06594842491512554,wave
0.1934663754632635,0.363673996183064,-0.061163373669455914,0.7960561549098472,0.09512373081271883,0.0010053233434549195,wave
0.4716576982869596,0.18166992904738027,0.11186323341542118,0.8601024525132454,0.11639055367870617,0.008981113631596172,wave
0.5961006553142499,0.1980205655479292,0.0013043374376952134,0.8207515670603732,0.1476239078476403,0.06725738102262073,wave
0.7047114525131005,0.1517686429063697,-0.01792510253569118,0.4886720973159847,0.05945530318998751,0.01798694875633942,wave
0.7370156614045993,0.3098983357441965,-0.011000549870105148,0.40635156676955664,0.11834070216427212,-0.024931694789422573,wave
0.9185768077109321,0.39598372547446753,0.12920603343265227,0.34962673746447626,0.06297549468339209,-0.04755921851939781,wave
0.9336578882844021,0.24506130494313885,-0.07491717266032419,0.006282629617542848,0.14324122192455058,-0.01709109101230678,wave
0.9491741673489903,0.2082772903785426,0.1315508290940104,-0.1810109035092539,0.10757015239758663,-0.05034636804725721,wave
0.7856575664831532,0.2036782833174235,0.021049629892150364,-0.5330038724288969,0.114922590699072,0.0023912659892341473,wave
0.717021692512932,-0.03843067887857457,-0.016041938197534772,-0.6446949760704892,0.06087007012907055,-0.02820980899302433,wave
0.3725854119904895,0.27451508642848177,0.25009004979342814,-0.9733653409491977,0.13535161798053924,-0.07470188966448753,wave
0.1854545120160795,0.21341664159958437,-0.10556394897985964,-1.0459931836932634,0.2042356460615508,0.06275728941874519,wave
0.05432852433897664,0.2428342050660725,-0.03536857595670061,-1.2718594133640837,0.049604415228589695,-0.02488362617145197,wave
-0.28092569662812245,0.12885378059162952,-0.12324312391640002,-0.8304411996064393,0.08301204961762382,-0.06340684024876563,wave
-0.5515386553794044,0.16155431210229085,0.09524619705361695,-0.6840557069098525,0.1115803737084046,-0.008412956724377077,wave
-0.800472441268832,0.1588975063496827,0.1689188933651679,-0.7276186147960453,0.13932031059979083,0.003418578298382938,wave
-0.9499224460444973,0.3021622984073039,0.1669922781404639,-0.48793346088055983,0.07202268573552656,-0.08732333627895168,wave
-1.0599892374770183,0.16212401633969067,0.12239487531460047,-0.29790714532541096,-0.041651514507137,0.01658238335628814,wave
-1.053586902778978,0.4082660322109798,-0.019762046779596563,0.0703169327194029,0.16795947470820127,-0.05235787843451323,wave
-0.8831012691622293,0.24308624190150374,-0.03652409774898465,0.3970208411613559,0.13802530597920715,0.08555144045953939,wave
-0.877331590134574,0.07243173400042685,-0.16711697724940652,0.3441153709224195,0.01285262347566675,0.02619802560383674,wave
-0.8306598575416102,0.18714537067480433,0.20358735351817928,0.7592932031619521,0.06962156041102222,-0.01999499950546583,wave
-0.31390062269796126,0.13483248778435844,0.04689780781484677,0.8436515269514738,0.1784091214763663,-0.037258388515867526,wave
-0.22165806479499225,-0.019438246982002416,-0.04919569048694831,0.978634302235698,0.1723898209228933,-0.005248385378181198,wave
-0.14069434005131745,0.359947094011379,0.13280568889869676,1.045899400167429,0.14693200113394725,0.03063953707916449,wave
-0.002549412858519966,0.19547456980356637,0.029523257504060315,1.0243134655138488,0.09648898192411917,0.006829869779437618,wave
0.2319387031958217,0.07668986949851449,-0.023823367505561754,0.9202745291604983,-0.026113895874397525,0.001269263898613586,wave
0.4965545810857274,0.33909723580014006,-0.04105184827297301,0.9325519255236406,0.09240163088419806,-0.03582867442120526,wave
0.6352966574797909,0.06440296551400362,0.18188985322003248,0.6204905110988623,0.15300719093356352,0.0404797217985943,wave
0.8208221703210423,0.18042147290314187,0.1177184963184339,0.38023339646416704,0.05531269904581429,0.02654471571079747,wave
