timestamp,gyro_x,gyro_y,gyro_z,acc_x,acc_y,acc_z,delta,sequence_id,label
12:45.1,11.534351,9.305344,19.351145,-0.024383,0.025763,0.156635,,1,x
12:45.3,43.916031,34.366413,15.816793,-0.008119,0.020351,0.108546,0.202686,1,x
12:45.5,-62.526718,30.312977,-13.908397,0.00958,-0.009093,0.068575,0.2006,1,x
12:45.7,-98.083969,-25.908398,-83.32061,0.08235,-0.033909,0.165945,0.201824,1,x
12:45.9,-9.083969,-45.450382,-120.793892,-0.010825,-0.040322,0.221692,0.200372,1,x
12:46.1,101.061066,19.465649,-60.832062,-0.051986,-0.038969,0.179692,0.200428,1,x
12:46.3,98.687019,74.610687,60.190838,-0.043543,-0.018538,0.0876,0.200454,1,x
12:46.5,23.312977,71.587784,60.908398,0.041324,0.030797,0.034991,0.200022,1,x
12:47.7,-1.80916,-1.045802,17.610687,-0.033395,0.043299,0.101483,1.224151,2,x
12:47.9,-4.38168,41.206108,23.412214,-0.042217,0.000352,0.034964,0.200872,2,x
12:48.1,-143.045807,0.946565,-27.419847,0.056884,-0.030364,0.148111,0.2015,2,x
12:48.3,-67.206108,-66.297707,-100.389313,0.014641,-0.042054,0.211463,0.198701,2,x
12:48.5,34.0229,-21.12977,-87.015266,-0.041757,-0.034315,0.217525,0.202681,2,x
12:48.7,117.847328,16.961832,0.206107,-0.072093,-0.033313,0.143862,0.200098,2,x
12:48.9,76.297707,67.259544,34.076336,-0.012909,-0.003491,0.08097,0.200233,2,x
12:49.1,-17.328245,72.39695,23.045801,0.042109,0.037643,0.074231,0.200718,2,x
12:50.1,4.664122,-4.389313,11.282443,-0.032123,0.043516,0.098993,1.023863,3,x
12:50.3,-7.641222,32.488548,14.801527,-0.044923,0.005656,0.033395,0.199047,3,x
12:50.5,-120.824425,11.267176,7.587786,0.004817,-0.019376,0.102782,0.202104,3,x
12:50.7,-95.137405,3.549618,-99.702293,0.039321,-0.036426,0.206159,0.201652,3,x
12:50.9,18.099237,-26.236641,-118.114502,-0.026196,-0.04265,0.213953,0.198513,3,x
12:51.1,115.511452,-10.328244,-18.045801,-0.064137,-0.038753,0.157501,0.202756,3,x
12:51.3,93.618324,61.458015,64.786263,-0.023328,-0.017834,0.096422,0.197716,3,x
12:51.5,30.122137,51.793892,63.671757,0.030499,0.017509,0.081105,0.202465,3,x
12:52.4,1.145038,34.854961,30.213741,-0.078047,0.038212,0.092985,0.923676,4,x
12:52.6,-50.442749,40.083969,49.732826,-0.018781,-0.006603,0.032637,0.199783,4,x
12:52.8,-129.038162,-13.022901,-33.916031,0.040214,-0.030472,0.148219,0.199946,4,x
12:53.1,-60.305344,-38.625954,-98.259544,-0.027982,-0.04154,0.221692,0.202762,4,x
12:53.2,73.725189,-13.526717,-88.801529,-0.066167,-0.036263,0.221692,0.199651,4,x
12:53.5,134.2061,17.404581,21.015266,-0.076532,-0.030824,0.109656,0.200841,4,x
12:53.7,71.839691,49.480915,69.656487,0.002814,-0.008254,0.060646,0.199783,4,x
12:54.6,20.687023,28.412214,44.396946,-0.036371,0.035181,0.08741,0.923531,5,x
12:54.8,-95.633591,32.9771,26.229008,0.053664,-0.012827,0.082729,0.199925,5,x
12:55.0,-91.549622,-34.061069,-87.709923,0.035695,-0.026656,0.216524,0.202068,5,x
12:55.2,21.786259,-38.70229,-107.816795,-0.032907,-0.034369,0.217146,0.198831,5,x
12:55.4,105.656487,-12.885496,-41.61832,-0.066762,-0.019187,0.192114,0.200654,5,x
12:55.6,116.099236,62.068703,61.068703,-0.035911,-0.010473,0.103052,0.201911,5,x
12:55.8,1.091603,48.015266,55.251907,0.059591,0.025898,0.027739,0.200042,5,x
12:56.7,0.175573,-2.503817,19.519083,-0.060078,0.03537,0.085841,0.922072,6,x
12:56.9,-82.732826,9.328244,51.305344,0.012692,-0.013504,0.059076,0.201757,6,x
12:57.1,-86.496185,-18.801527,-80.625954,0.045275,-0.016806,0.192114,0.202187,6,x
12:57.3,3.725191,-39.854961,-114.984734,-0.029741,-0.033368,0.209,0.200815,6,x
12:57.5,95.824425,24.435114,-50.984734,-0.085679,-0.026764,0.196092,0.200952,6,x
12:57.7,114.496185,58.992367,66.450378,-0.032718,-0.016833,0.096774,0.199892,6,x
12:57.9,-2.923664,19.816793,14.458015,0.051634,0.032799,0.055234,0.200902,6,x
12:58.7,3.603053,21.076336,52.786259,-0.057994,0.030526,0.080023,0.822024,7,x
12:58.9,-134.045807,54.259541,35.763359,0.075774,-0.015074,0.053745,0.201795,7,x
12:59.1,-119.801529,-13.053435,-98.091606,0.049848,-0.010933,0.202614,0.200105,7,x
12:59.3,5.396946,-27.80916,-126.374046,-0.020811,-0.04771,0.20237,0.199804,7,x
12:59.5,118.96183,-13.206107,-29.755726,-0.082188,-0.041297,0.196308,0.201946,7,x
12:59.7,120.923668,47.122139,84.854965,-0.027793,-0.015317,0.09856,0.200699,7,x
12:59.9,4.305344,39.190838,66.71756,0.014911,0.032556,0.066681,0.19997,7,x
13:00.9,-5.427481,14.557252,33.099236,-0.059645,0.039051,0.075936,0.923133,8,x
13:01.1,-107.801529,28.068703,67.984734,0.0374,-0.002111,0.07139,0.201048,8,x
13:01.3,-115.732826,-34.206108,-79.198471,0.063433,-0.019458,0.16129,0.200986,8,x
13:01.5,20.656488,-5.290076,-141.274811,-0.028172,-0.04928,0.221692,0.199923,8,x
13:01.7,118.793892,5.664122,-50.244274,-0.098506,-0.043922,0.181911,0.20119,8,x
13:01.9,104.328247,63.770992,76.549622,-0.037833,-0.014992,0.078209,0.200571,8,x
13:02.1,-7.38168,41.129772,108.106873,0.031311,0.026115,0.056749,0.200168,8,x
13:03.0,-19.198473,29.244274,35.480915,-0.027874,0.009824,0.030905,0.922514,9,x
13:03.2,-167.480911,-13.954199,-40.480915,0.050363,-0.041703,0.108059,0.202535,9,x
13:03.4,-48.152672,18.030535,-157.045807,-0.00709,-0.054611,0.221692,0.198009,9,x
13:03.6,84.076332,9.221375,-79.633591,-0.095746,-0.053962,0.192411,0.202014,9,x
13:03.8,114.908394,42.32061,57.770992,-0.073934,-0.036344,0.112145,0.199087,9,x
13:04.0,42.038166,46.091602,93.938934,0.010121,0.010392,0.05472,0.19996,9,x
13:04.8,19.595419,7.709924,27.610687,-0.057967,0.04357,0.091172,0.824896,10,x
13:05.0,-129.595413,58.152672,64.083969,0.001272,-0.037941,0.003356,0.200319,10,x
13:05.2,-127.183205,-0.984733,-113.946564,0.051878,-0.051634,0.219257,0.199195,10,x
13:05.4,21.221375,11.374045,-166.70993,-0.046276,-0.071525,0.213411,0.203449,10,x
13:05.6,108.824425,7.59542,-35.740459,-0.096585,-0.04357,0.195551,0.198807,10,x
13:05.8,135.549622,30.664122,94.854965,-0.058048,-0.0315,0.120074,0.202683,10,x
13:06.0,26.923664,41.64122,88.908394,0.037562,0.022056,0.014911,0.200077,10,x
13:06.9,5.068702,10.450381,24.083969,-0.07526,0.045762,0.074962,0.922892,11,x
13:07.1,-99.175575,27.412214,15.900764,0.027712,-0.007821,0.061918,0.198822,11,x
13:07.3,-116.267174,0.40458,-124.106873,0.017428,-0.038401,0.21444,0.20093,11,x
13:07.5,16.969465,-26.137405,-152.152664,-0.052013,-0.052419,0.203507,0.202432,11,x
13:07.7,115.702293,-29.061069,15.755725,-0.073149,-0.033449,0.172629,0.201132,11,x
13:07.9,110.366409,28.015266,64.648857,-0.049469,-0.013775,0.106922,0.200298,11,x
13:08.1,14.862596,50.908398,84.618324,-0.007983,0.019593,0.067114,0.200026,11,x
13:08.9,-13.183207,6.412214,76.152672,-0.076965,0.025655,0.073907,0.722696,12,x
13:09.1,-111.541985,42.114502,23.633587,0.102376,-0.00617,0.075043,0.200361,12,x
13:09.3,-108.251907,40.633587,-122.290077,0.071092,-0.031771,0.215414,0.199785,12,x
13:09.5,4.78626,4.824428,-136.916031,-0.056803,-0.036182,0.221692,0.202031,12,x
13:09.7,116.786263,-36.961834,-13.374045,-0.036534,-0.016373,0.149978,0.200529,12,x
13:09.9,94.35878,47.816795,59.389313,-0.032529,-0.004222,0.074285,0.200445,12,x
13:10.1,3.045802,82.389313,47.916031,0.033665,0.037481,0.058508,0.200516,12,x
13:10.9,-16.32061,16.709923,56.274811,-0.086436,0.020459,0.044084,0.823209,13,x
13:11.1,-118.458015,-39.877861,17.091602,0.089224,-0.021135,0.10335,0.200388,13,x
13:11.3,-102.496185,-23.770992,-123.64122,0.060592,-0.039321,0.221692,0.201034,13,x
13:11.5,69.229004,-13.557252,-83.221375,-0.044219,-0.030986,0.213709,0.201332,13,x
13:11.7,112.435112,12.816793,12.167939,-0.068386,-0.022056,0.151304,0.200817,13,x
13:11.9,90.099236,88.435112,72.335876,-0.019404,0.004898,0.10289,0.199679,13,x
13:12.1,-5.40458,7.259542,55.992367,0.065653,0.040539,0.071227,0.200493,13,x
13:12.9,13.038168,28.442749,51,-0.003464,0.020378,0.084244,0.8227,14,x
13:13.1,-87.725189,10.160305,-11.167939,0.099291,-0.013071,0.101375,0.201656,14,x
13:13.3,-96.519081,-7.419847,-111.480919,0.053935,-0.021108,0.221692,0.199695,14,x
13:13.5,36.351147,-21.541985,-112.297707,-0.031257,-0.038942,0.215062,0.19957,14,x
13:13.7,111.572517,16.137405,-13.664123,-0.053881,-0.017915,0.153144,0.202702,14,x
13:13.9,106.854965,38.961834,48.511452,-0.01142,0.002544,0.077262,0.199802,14,x
13:14.1,-21.633587,37.633587,34.038166,0.052527,0.038158,0.04606,0.198819,14,x
13:15.0,25.099237,36.809162,49.34351,-0.058833,0.043056,0.079914,0.92301,15,x
13:15.2,-61.748093,60.862595,49.824429,0.039429,-0.009634,0.075205,0.202592,15,x
13:15.4,-146.610687,18.396946,-51.511452,0.084488,-0.024383,0.173684,0.200634,15,x
13:15.6,-47.954197,-11.526717,-135.908401,0.038861,-0.022705,0.221692,0.199208,15,x
13:15.8,88.541985,-3.29771,-74.251907,-0.027549,-0.018267,0.173928,0.202492,15,x
13:16.0,104.106873,19.29771,16.48855,-0.038834,2.70E-05,0.144078,0.201192,15,x
13:16.2,55.160305,59.0229,51.534351,-0.007929,0.019647,0.061458,0.19985,15,x
13:16.4,-36.931297,3.358779,34.35878,0.068629,0.038645,0.072066,0.200826,15,x
13:17.2,25.267176,47.221375,31.122137,-0.053556,0.038618,0.094798,0.721229,16,x
13:17.4,-84.122139,49.923664,86.763359,0.032096,-0.029714,0.082972,0.200325,16,x
13:17.6,-134.931305,16.687023,-47.091602,0.082485,-0.031203,0.161533,0.201044,16,x
13:17.8,-28.053434,-5.40458,-131.198471,0.020892,-0.039402,0.216902,0.202699,16,x
13:18.0,77.763359,0.175573,-63.229008,-0.027712,-0.034964,0.170464,0.199911,16,x
13:18.2,119.015266,21.778625,12.335877,-0.05177,-0.016724,0.139965,0.201153,16,x
13:18.4,85.160309,25.854961,83.381676,0.012746,0.003708,0.041703,0.198962,16,x
13:18.6,-14.229008,6.442748,22.435114,0.063001,0.039944,0.077722,0.201414,16,x
13:19.3,15.679389,36.030533,52.9771,-0.042433,0.024058,0.082431,0.722615,17,x
13:19.5,-104.053436,-22.938931,72.290077,0.084136,-0.023382,0.099751,0.200926,17,x
13:19.7,-95.916031,1.328244,-90.198471,0.078778,-0.020513,0.221692,0.200946,17,x
13:19.9,4.755725,7.549618,-121.503815,-0.011556,-0.035776,0.210029,0.200643,17,x
13:20.1,102.67939,22.908398,-24.70229,-0.059374,-0.025438,0.164023,0.200329,17,x
13:20.3,90.786263,44.564884,56.610687,-0.049659,-0.01234,0.103161,0.20137,17,x
13:20.5,11.847328,48.251907,40.9771,0.032204,0.027684,0.059212,0.199531,17,x
13:21.4,-12.267176,10.335877,94.854965,-0.009309,0.002977,0.054016,0.921831,18,x
13:21.6,-111.274811,39.351147,-50.35878,0.017293,-0.032123,0.102349,0.203406,18,x
13:21.8,-79.274811,-31.145039,-98.770996,-0.003004,-0.03602,0.213493,0.20029,18,x
13:22.0,49.816795,-13.328244,-114.885498,-0.029498,-0.038861,0.216659,0.197978,18,x
13:22.2,130.847336,16.770992,-10.267176,-0.091659,-0.032447,0.151439,0.200308,18,x
13:22.4,65.740456,45.503819,66.305344,-0.039511,-0.010067,0.05932,0.200666,18,x
13:22.6,-11.389313,25.610687,83.206108,0.055613,0.026629,0.069874,0.203203,18,x
13:23.4,17.412214,19.519083,54.503819,-0.060592,0.028902,0.100076,0.722302,19,x
13:23.6,-114.076332,3.503817,46.580154,0.065382,-0.013829,0.067763,0.199325,19,x
13:23.8,-120.106873,-6,-89.022903,0.052365,-0.045843,0.198879,0.202768,19,x
13:24.0,5.129771,-10.694656,-134.152664,-0.018565,-0.045437,0.221692,0.198249,19,x
13:24.2,137.633591,16.961832,-5.778626,-0.091334,-0.050173,0.155986,0.200551,19,x
13:24.4,107.083969,36.015266,78.740456,-0.033016,-0.030878,0.076748,0.202852,19,x
13:24.6,2.839695,22.328245,58.045803,0.051228,0.034125,0.050633,0.198752,19,x
13:25.3,4.343512,0.465649,43.206108,-0.049821,0.02441,0.091091,0.723371,20,x
13:25.5,-121.206108,37.824429,13.343512,0.010527,-0.019376,0.032907,0.201365,20,x
13:25.7,-99.648857,-4.51145,-102.732826,0.040999,-0.005467,0.221692,0.201027,20,x
13:25.9,11.244275,-0.717557,-141.404587,-0.032231,-0.031013,0.217417,0.198906,20,x
13:26.1,121.022903,18.045801,-7.961832,-0.07258,-0.026061,0.169057,0.202332,20,x
13:26.3,78.175575,40.137405,74.381676,-0.012016,-0.006495,0.063704,0.200185,20,x
13:26.5,6.427481,47.030533,35.450382,0.038185,0.041216,0.094988,0.200669,20,x
13:27.3,15.251908,0.137405,30.526718,-0.061323,0.038645,0.102728,0.8212,21,x
13:27.5,-62.0229,28.396946,68.923668,-0.006089,-0.011095,0.027847,0.202921,21,x
13:27.7,-150.442749,1.992366,-58.709923,0.060078,-0.032393,0.165106,0.200033,21,x
13:27.9,-23.801527,-17.229008,-142.183212,-0.010338,-0.032312,0.221692,0.200533,21,x
13:28.1,97.656487,-0.832061,-30.534351,-0.07231,-0.026115,0.181776,0.19976,21,x
13:28.3,91.96183,37.458015,58.190838,-0.050985,-0.011907,0.118451,0.202168,21,x
13:28.5,40.549618,14.770992,79.206108,0.039673,0.023328,0.05158,0.20061,21,x
13:29.2,9.900764,19.786259,30.29771,-0.052717,0.036209,0.078805,0.719806,22,x
13:29.4,-96.183205,29.167938,40.106869,0.030391,-0.015155,0.035235,0.200999,22,x
13:29.6,-126.702293,-18.335878,-83.519081,0.058373,-0.020594,0.221692,0.199988,22,x
13:29.8,21.885496,-8.534351,-117.290077,-0.043245,-0.026683,0.221692,0.201291,22,x
13:30.0,134.374039,14.801527,5.480916,-0.076396,-0.037941,0.155688,0.200379,22,x
13:30.2,97.381676,17.595419,79,-0.030607,-0.002787,0.081349,0.201292,22,x
13:30.4,-23.137405,14.335877,53.854961,0.053637,0.032637,0.036804,0.200709,22,x
13:31.2,3.129771,20,8.916031,-0.070876,0.062026,0.12251,0.721383,23,x
13:31.4,-61.748093,36.67939,44.190838,0.002869,-0.001813,0.056722,0.200678,23,x
13:31.6,-129.160309,1.877863,-23.580153,0.068169,-0.007117,0.155769,0.201032,23,x
13:31.8,-59.427483,-8.389313,-126.694656,0.03288,-0.014262,0.211544,0.201002,23,x
13:32.0,102.458015,14.610687,-61.862595,-0.083568,-0.013693,0.216226,0.200001,23,x
13:32.2,115.450378,44.480915,33.786259,-0.073528,-0.021893,0.097911,0.201102,23,x
13:32.4,11.61832,28.793894,97.748093,0.005142,0.012313,0.044003,0.201005,23,x
13:33.3,-34.145039,58.67939,101,-0.037237,-0.002463,0.017996,0.921994,24,x
13:33.5,-122.549622,49.106869,-26.061069,0.073446,-0.025087,0.131846,0.200895,24,x
13:33.7,-77.938934,-20.022902,-144.702286,0.011231,-0.036507,0.221692,0.201514,24,x
13:33.9,91.732826,-5.099236,-85.809158,-0.072229,-0.02487,0.207593,0.200547,24,x
13:34.1,121.770996,19.137405,22.526718,-0.069577,-0.015642,0.111577,0.199972,24,x
13:34.3,81.587784,37.709923,86.022903,-0.011231,0.014911,0.047602,0.200995,24,x
13:35.2,-18.282442,30.748091,61.206108,-0.039402,0.019539,0.059374,0.923239,25,x
13:35.4,-97.198471,35.061069,28.931297,0.061296,-0.006847,0.082458,0.200027,25,x
13:35.6,-87.60305,-11.664123,-81.488548,0.027495,-0.01759,0.221692,0.201207,25,x
13:35.8,9.335877,-33.412212,-106.152672,-0.006333,-0.017428,0.221692,0.200756,25,x
13:36.0,102.312981,-27.67939,-24.885496,-0.052257,-0.016887,0.165241,0.201001,25,x
13:36.2,101.916031,39.816795,45.946564,-0.052906,-0.001299,0.095448,0.200549,25,x
13:36.4,24.587786,26.32061,79.610687,0.003166,0.020432,0.043813,0.200103,25,x
13:37.2,11.877863,31.984734,76.198471,-0.03196,0.023571,0.082215,0.824625,26,x
13:37.4,-93.534348,-9.59542,57.854961,0.04154,-0.012638,0.092038,0.200571,26,x
13:37.6,-105.022903,-19.862595,-79.984734,0.075882,-0.013531,0.210651,0.201709,26,x
13:37.8,31.816793,5.816794,-119.076332,-0.026277,-0.019539,0.219879,0.199599,26,x
13:38.0,98.167938,20.160305,-31.748091,-0.070903,-0.015182,0.160099,0.201765,26,x
13:38.2,67.381676,56.175571,73.541985,-0.027603,0.004628,0.082972,0.19997,26,x
13:38.4,-0.160305,24.67939,21.030535,0.047548,0.044815,0.069739,0.200533,26,x
13:39.3,-64.870232,18.38168,55.465649,0.027522,0.010906,0.071958,0.822738,27,x
13:39.5,-82.877861,-14.351145,-47.984734,0.0456,-8.10E-05,0.165187,0.199903,27,x
13:39.7,-22.671755,-21.045801,-106.076332,0.007632,-0.008741,0.19509,0.201861,27,x
13:39.9,63.877861,46.114502,-93.992363,-0.059564,-0.016318,0.168299,0.20081,27,x
13:40.1,77.549622,9.106871,20.251909,-0.034477,0.013775,0.134661,0.198478,27,x
13:40.3,37.061069,32.244274,74.893127,-0.011123,0.012638,0.071227,0.202383,27,x
13:41.1,8.244275,48.648853,47.259541,-0.053556,0.029065,0.078264,0.820822,28,x
13:41.3,-73.809158,29.969465,37.236641,0.055694,0.001082,0.072147,0.20099,28,x
13:41.5,-99.061066,1.534351,-83.068703,0.08216,-0.012178,0.18183,0.201265,28,x
13:41.7,-13.503817,-15.557252,-155.778625,0.000731,-0.033286,0.213141,0.202394,28,x
13:41.9,102.60305,23.442749,-25.312977,-0.065761,-0.016806,0.168759,0.200229,28,x
13:42.1,77.977097,25.282442,80.244278,-0.033557,-0.004655,0.069008,0.200478,28,x
13:42.9,3.78626,7.763359,52.106869,-0.048522,0.032907,0.099291,0.822529,29,x
13:43.1,-52.854961,32.366413,49.625954,0.026846,-0.005331,0.052988,0.20111,29,x
13:43.3,-90.412216,-13.496183,-80.343513,0.054016,-0.010229,0.16884,0.200891,29,x
13:43.5,-16.954199,-28.137405,-121.687019,0.012097,-0.017103,0.221692,0.200395,29,x
13:43.7,95.656487,4.984733,-44,-0.057345,-0.015804,0.178718,0.198224,29,x
13:43.9,92.709923,13.221375,78.870232,-0.021163,-0.005142,0.071281,0.203135,29,x
13:44.1,15.580153,41.29771,48.305344,0.056397,0.033097,0.068981,0.198565,29,x
13:44.9,-8.549619,67.748093,44.625954,-0.047223,0.004871,0.061106,0.822318,30,x
13:45.1,-124.39695,27.893129,1.549618,0.087248,-0.014965,0.096287,0.200549,30,x
13:45.3,-73.419846,-8.068703,-128.511444,0.060538,-0.017157,0.20808,0.203484,30,x
13:45.5,49.67939,-14.870229,-117.488548,-0.054368,-0.027739,0.21582,0.200325,30,x
13:45.7,126.083969,14.152672,31.80916,-0.068494,-0.02671,0.146703,0.200959,30,x
13:45.9,53.595421,49.900764,64.877861,0.023977,0.007929,0.051716,0.200318,30,x
15:25.7,31.961832,33.366413,-19.29771,-0.007334,0.046276,0.127814,99.747188,31,x
15:25.9,-5.839694,-16.641222,50.007633,-0.060863,0.016264,0.078778,0.199735,31,x
15:26.1,-118.045799,28.12977,24.557251,0.046411,-0.010771,0.068061,0.200648,31,x
15:26.3,-76.938934,15.351145,-111.809158,0.078724,-0.041973,0.212762,0.202722,31,x
15:26.5,51.64122,23.114504,-192.412216,-0.028794,-0.073555,0.221692,0.200872,31,x
15:26.7,154.28244,58.732826,-0.625954,-0.083541,-0.044598,0.135283,0.200734,31,x
15:26.9,65.129768,82.099236,147.114502,-0.061945,-0.009418,0.046114,0.198392,31,x
15:27.1,-1.778626,-45.778625,-11.557252,0.04771,0.053015,0.114094,0.200789,31,x
15:27.3,-8.38168,-7.938931,7.389313,-0.001705,0.066086,0.100454,0.202,31,x
15:28.1,51.221375,20.015266,-0.145038,-0.047656,0.047277,0.10519,0.822659,32,x
15:28.3,-65.664124,5,119.763359,-0.040268,-0.004763,0.02257,0.201256,32,x
15:28.5,-131.824432,-12.580153,30.068703,0.116421,-0.020648,0.144484,0.198863,32,x
15:28.7,-93.809158,49.572517,-156,0.054232,-0.061241,0.178637,0.20003,32,x
15:28.9,59.35878,47.167938,-196.35878,-0.100969,-0.081457,0.221692,0.20228,32,x
15:29.1,170.145035,63.916031,43.969467,-0.069604,-0.048793,0.13826,0.200337,32,x
15:29.3,51.091602,93.015266,175.854965,-0.019864,-0.00847,0.038374,0.201299,32,x
15:29.5,-15.755725,2.374046,-21.358778,0.079508,0.058589,0.127706,0.20081,32,x
15:31.2,39.396946,22.916031,-3.763359,0.035127,0.057859,0.140209,1.624924,33,x
15:31.4,28.740458,27.877863,97.511452,-0.028821,0.008795,0.015967,0.201986,33,x
15:31.6,-147.343506,8.648855,97.145035,0.114337,-0.045085,0.069279,0.201481,33,x
15:31.8,-134.152664,14.221375,-110.572517,0.154416,-0.044463,0.139099,0.199085,33,x
15:32.0,-28.755726,58.648853,-194.572525,0.037319,-0.056506,0.216036,0.200561,33,x
15:32.2,174.786255,37.251907,6.954198,-0.044923,-0.034558,0.151737,0.202492,33,x
15:32.4,44.572517,112.030533,92.175575,0.028578,0.026602,0.019376,0.199044,33,x
15:32.6,0.969466,-49.763359,32.404579,0.056668,0.057588,0.076667,0.200597,33,x
15:33.3,10.862596,194.526718,-20.022902,-0.030553,0.055531,0.128328,0.721884,34,x
15:33.5,11.198473,-4.473282,70.816795,-0.053231,0.027847,0.035695,0.201395,34,x
15:33.7,-142.984726,10.862596,88.877861,0.064651,-0.025222,0.046033,0.200643,34,x
15:33.9,-84.694656,42.061069,-105.488548,0.101375,-0.052311,0.166215,0.201569,34,x
15:34.1,-4.770992,-29.877863,-218.251907,-0.017482,-0.084515,0.221692,0.197469,34,x
15:34.3,170.160309,0.946565,-43.969467,-0.080672,-0.040837,0.203426,0.20379,34,x
15:34.5,109.236641,83.740456,97.854965,-0.0525,-0.016589,-0.023706,0.198405,34,x
15:34.7,-5.679389,55.946564,40.847328,0.126948,0.04127,0.171465,0.202428,34,x
15:35.5,42.221375,65.946564,24.80916,-0.049794,0.057128,0.055964,0.822165,35,x
15:35.7,-129.854965,164.175568,121.862595,-0.007902,-0.024816,0.038672,0.200779,35,x
15:35.9,-180.122131,-6.473282,-62.152672,0.061133,-0.06955,0.131143,0.201094,35,x
15:36.1,-54.091602,51.206108,-250.129776,0.033476,-0.123836,0.206213,0.200317,35,x
15:36.3,127.183205,14.221375,-198.954193,-0.117016,-0.118397,0.221692,0.201441,35,x
15:36.5,204.893127,97.480919,148.35878,-0.056181,-0.073311,0.114283,0.200135,35,x
15:36.7,-36.259541,28.709923,215.893127,0.070091,-0.005494,0.015967,0.19872,35,x
15:37.4,46.839695,18.465649,20.893129,-0.040891,0.069198,0.121211,0.724234,36,x
15:37.6,-30.091602,83.633591,73.419846,0.003356,0.020297,0.040214,0.200431,36,x
15:37.8,-157.412216,58.480915,-9.267176,0.088033,-0.028902,0.082188,0.201697,36,x
15:38.0,-137.931305,41.740459,-191.519089,0.050011,-0.113661,0.215576,0.197387,36,x
15:38.2,4.969466,97.625954,-250.129776,-0.067412,-0.138179,0.221692,0.201698,36,x
15:38.4,250.137405,49.366413,31.709923,-0.050796,-0.094744,0.139911,0.202345,36,x
15:38.6,121.816795,109.885498,173.580154,-0.020865,-0.019918,0.027684,0.201036,36,x
15:38.8,3.236641,18.725191,51.824429,0.143835,0.047332,0.110251,0.200326,36,x
15:39.6,58.221375,52.778625,47.633587,-0.055829,0.060754,0.089846,0.721553,37,x
15:39.8,-95.412216,63.801525,127.687019,0.016751,-0.010392,0.025411,0.200877,37,x
15:40.0,-152.366409,25.450382,-84.587784,0.108438,-0.059915,0.132009,0.201926,37,x
15:40.2,-78.442749,29.259542,-196.984726,0.04035,-0.123187,0.200205,0.200576,37,x
15:40.4,128.816788,96.923668,-163.320618,-0.096693,-0.093012,0.212464,0.200121,37,x
15:40.6,169.786255,119.610687,88.923668,-0.048766,-0.036047,0.102944,0.201369,37,x
15:40.8,9.450381,98.977097,153.946564,0.048712,0.017942,0.009553,0.197351,37,x
15:41.0,-30.145039,45.877861,-9.045801,0.033665,0.062243,0.095664,0.202938,37,x
15:41.6,6.824428,81.541985,50.603054,-0.022543,0.045464,0.092146,0.621672,38,x
15:41.8,-129.389313,-19.908398,58.480915,-0.012584,-0.006847,0.052284,0.200077,38,x
15:42.0,-149.984726,-45.900764,-130.885498,0.083053,-0.049118,0.148354,0.202014,38,x
15:42.2,-52.580154,25.122137,-165.229004,-0.020973,-0.081863,0.184239,0.200466,38,x
15:42.4,128.351151,73.770996,-40.9771,-0.111117,-0.076559,0.208703,0.201264,38,x
15:42.6,91.328247,80.908394,108.030533,-0.058427,-0.036534,0.076748,0.200624,38,x
15:42.8,28.732824,3.152672,101.854965,0.074015,0.039186,0.084542,0.197922,38,x
15:43.4,50.793892,-21.946566,-1.946565,-0.022299,0.044138,0.145134,0.624086,39,x
15:43.6,18.87023,18.984734,93.290077,-0.037995,0.025384,0.07001,0.199167,39,x
15:43.8,-131.7939,8.839695,48.709923,0.034639,-0.020324,0.087492,0.200528,39,x
15:44.0,-120.167938,42.251907,-82.328247,0.096855,-0.047359,0.178907,0.202819,39,x
15:44.2,8.061069,5.160306,-139.152664,0.016021,-0.068061,0.207187,0.198391,39,x
15:44.4,117.793892,35.183205,-44.503819,-0.103323,-0.046249,0.153442,0.203313,39,x
15:44.6,103.71756,52.229008,118.969467,0.035641,-0.011934,0.012178,0.200019,39,x
15:44.8,-4.633588,-19.572519,30.732824,0.038618,0.036534,0.105082,0.199524,39,x
15:45.4,38.748093,-7.274809,-5.328244,-0.027982,0.042,0.151439,0.622436,40,x
15:45.6,-13.870229,48.030533,55.389313,-0.02349,0.029444,0.075666,0.200118,40,x
15:45.8,-95.709923,-25.946566,61.236641,0.037806,-0.017347,0.060619,0.202345,40,x
15:46.0,-111.625954,25.778625,-89.297707,0.085435,-0.048739,0.170464,0.200596,40,x
15:46.2,25.259542,18.068703,-144.419846,-0.010419,-0.060998,0.218824,0.199213,40,x
15:46.4,114.061066,4.755725,-27.709923,-0.114418,-0.038807,0.155201,0.202716,40,x
15:46.6,79.541985,53.091602,81.114502,-0.052717,-0.003166,0.076207,0.200913,40,x
15:46.8,-2.427481,43.244274,84.32061,0.100103,0.036669,0.056993,0.19901,40,x
15:47.6,32.374046,-18.32061,-20.992367,-0.02874,0.057642,0.115122,0.722327,41,x
15:47.8,7.526718,-14.175572,129.061066,-0.04338,0.008119,0.060754,0.201843,41,x
15:48.0,-106.068703,34.954197,63.801525,0.093635,-0.020188,0.087816,0.200586,41,x
15:48.2,-113.488548,-19.137405,-71.984734,0.051337,-0.056451,0.156338,0.19875,41,x
15:48.4,-7.969466,-63.877861,-120.435112,0.004709,-0.053664,0.198744,0.202866,41,x
15:48.6,51.748093,29.877863,-119.068703,-0.032637,-0.03261,0.178339,0.200815,41,x
15:48.8,110.870232,57.541985,13.541985,-0.048387,-0.003897,0.117991,0.19992,41,x
15:49.0,51.900764,39.282444,93.213737,0.023598,0.018375,0.057426,0.201801,41,x
15:49.8,60.625954,20.305344,1.083969,-0.019241,0.063325,0.108681,0.819579,42,x
15:50.0,-27.961832,44.244274,103.71756,-0.045031,0.025844,0.026277,0.203568,42,x
15:50.2,-102.39695,36.068703,69.488548,0.087275,-0.019674,0.089981,0.19989,42,x
15:50.4,-123.610687,36.076336,-68,0.0958,-0.051391,0.178366,0.200886,42,x
15:50.6,-46.64122,26.877863,-172.007629,0.026656,-0.076477,0.221259,0.200053,42,x
15:50.8,95.885498,49.824429,-115.39695,-0.071363,-0.056397,0.18459,0.19935,42,x
15:51.0,129.870224,27.068703,70.832062,-0.031554,-0.006143,0.076261,0.203016,42,x
15:51.2,25.763359,-9.198473,106.419846,0.069793,0.043353,0.020594,0.199856,42,x
15:51.9,36.916031,58.480915,13.931297,-0.070443,0.052609,0.12048,0.721859,43,x
15:52.1,-24.931297,17.664122,137.92366,-0.027252,0.01069,0.039754,0.200667,43,x
15:52.3,-119.770996,47.664124,75.045799,0.099237,-0.029795,0.09396,0.201123,43,x
15:52.5,-99.755722,38.664124,-107.091606,0.104027,-0.067682,0.153144,0.201113,43,x
15:52.7,-71,41.717556,-176.954193,0.012854,-0.083919,0.195226,0.201456,43,x
15:52.9,166.442749,69.984734,-33.801525,-0.06706,-0.057615,0.20827,0.201096,43,x
15:53.1,123.519081,36.045803,71.587784,-0.050146,-0.004573,0.042271,0.20016,43,x
15:53.3,-41.595421,14.603053,79.992363,0.112795,0.022705,0.110359,0.198444,43,x
15:54.1,40.503819,34.748093,29.145039,-0.091984,0.043002,0.13117,0.822135,44,x
15:54.3,-13.847328,31.748091,138.061066,0.007361,0.003924,0.027062,0.202637,44,x
15:54.6,-145.679382,25.541985,53.396946,0.106679,-0.047846,0.129546,0.201351,44,x
15:54.8,-126.122139,39.824429,-134.931305,0.111956,-0.086409,0.17769,0.199531,44,x
15:55.0,-26.312977,94.648857,-198.129776,-0.031663,-0.083838,0.221692,0.201595,44,x
15:55.2,128.580154,55.122139,-56.725189,-0.075611,-0.043841,0.142942,0.199246,44,x
15:55.4,96.824425,52.557251,87.954201,-0.037806,-0.007956,0.03123,0.200383,44,x
15:55.6,11.167939,-1.229008,52.603054,0.120589,0.052203,0.0899,0.202332,44,x
15:56.4,36.900764,-19.473282,-21.70229,-0.028659,0.054151,0.119344,0.821734,45,x
15:56.6,4.992366,1.885496,170.07634,-0.034667,-0.008173,0.033665,0.201246,45,x
15:56.8,-160.984726,61.809162,16.557251,0.105677,-0.044355,0.069008,0.198181,45,x
15:57.0,-137.396942,66.488548,-157.900757,0.095042,-0.093824,0.164213,0.202967,45,x
15:57.2,3.961832,70.160309,-142.183212,0.006008,-0.071227,0.221692,0.201568,45,x
15:57.4,183.549622,-34.877861,-31.51145,-0.061512,-0.061891,0.158394,0.199207,45,x
15:57.6,73.374046,65.290077,89.816795,-0.013991,0.000108,-0.008119,0.201619,45,x
15:57.8,-15.572519,-2.221374,14.419847,0.175525,0.046033,0.123755,0.199459,45,x
15:58.7,61.244274,24.435114,20.664122,-0.039971,0.041621,0.135527,0.924054,46,x
15:58.9,11.885496,14.282443,132.091599,0.023003,0.015074,0.025574,0.200499,46,x
15:59.1,-116.740456,41.625954,40.068703,0.095881,-0.033773,0.08852,0.200586,46,x
15:59.3,-139.29007,31.587786,-136.885498,0.083459,-0.089575,0.184969,0.20274,46,x
15:59.5,-0.274809,42.160305,-212,0.047927,-0.092228,0.214819,0.197104,46,x
15:59.7,167.954193,41.190838,-65.946564,-0.075909,-0.051012,0.146379,0.203239,46,x
15:59.9,68.694656,88.587784,184.816788,-0.048766,-0.02211,0.028983,0.199885,46,x
16:00.1,1.916031,8.442748,22.045801,0.069604,0.035857,0.106246,0.200794,46,x
16:01.1,28.007633,6.389313,-11.480916,-0.040485,0.066492,0.122781,1.023144,47,x
16:01.3,24.167938,49.175571,128.389313,-0.053258,0.011014,0.089061,0.201449,47,x
16:01.5,-87.091606,44.274811,90.870232,0.079427,-0.009228,0.066762,0.198767,47,x
16:01.7,-122.404579,29.793894,-28.328245,0.097856,-0.040404,0.144755,0.20226,47,x
16:01.9,-53.587788,-2.564885,-132.70993,0.061783,-0.051499,0.179286,0.200558,47,x
16:02.1,39.068703,51.32061,-157.442749,0.006901,-0.027793,0.176363,0.200893,47,x
16:02.3,112.458015,51.190838,47.664124,-0.057182,-0.009012,0.097126,0.201188,47,x
16:02.5,26.816793,40.229008,111.732826,0.032204,0.034667,0.02376,0.198676,47,x
16:03.5,67.03817,12.977099,8.007633,-0.065788,0.057155,0.101835,0.922055,48,x
16:03.7,-18.946566,19.587786,140.458008,0.028009,0.011123,0.041784,0.202519,48,x
16:03.9,-123.480919,15.40458,35.503819,0.086626,-0.036967,0.081782,0.201621,48,x
16:04.1,-122.39695,20.977098,-100.221375,0.089386,-0.046466,0.221692,0.199968,48,x
16:04.3,7.900764,-17.51145,-177.160309,0.026602,-0.038591,0.17842,0.199448,48,x
16:04.5,140.381683,47.67939,3.946565,-0.030201,-0.016697,0.156906,0.202671,48,x
16:04.7,112.435112,56.32061,173.648849,0.003383,0.00157,-0.01732,0.197818,48,x
16:09.4,18.358778,-51.290077,-6.458015,-0.061783,0.071931,0.120589,4.738237,49,x
16:09.6,4.167939,31.709923,134.854965,-0.034288,0.007956,0.056343,0.199888,49,x
16:09.8,-145.832062,51.007633,73.96183,0.096233,-0.032907,0.056289,0.199591,49,x
16:10.0,-132.335876,7.465649,-144.755722,0.082918,-0.096233,0.221692,0.202679,49,x
16:10.2,98.290077,7.572519,-210.702286,-0.027143,-0.088737,0.221692,0.200256,49,x
16:10.4,137.297714,96.900764,12.465649,-0.08051,-0.031825,0.078074,0.200369,49,x
16:10.6,0.51145,-5.030534,165.328247,0.110007,0.031581,0.069658,0.200337,49,x
16:11.5,103.198471,46.687023,13.832061,-0.054557,0.044652,0.153956,0.923121,50,x
16:11.7,-20.839695,35.114502,223.343506,-0.010608,-0.031311,0.037481,0.200627,50,x
16:11.9,-115.32061,47.007633,36.916031,0.142725,-0.036453,0.070172,0.201092,50,x
16:12.1,-97.404579,13.931297,-125.335876,0.120399,-0.086734,0.178123,0.201188,50,x
16:12.3,62.946564,-29.404581,-155.045807,0.019349,-0.060863,0.221692,0.200184,50,x
16:12.5,136.549622,63.122139,-44.946564,-0.076288,-0.033151,0.127489,0.201164,50,x
16:12.7,26.67939,18.610687,195.297714,0.023977,-0.014965,0.056235,0.199068,50,x
16:14.1,79.068703,108.862595,-24.633587,-0.03445,0.061702,0.110765,1.324626,51,x
16:14.3,8.282443,77.656487,162.488556,0.022353,0.001407,0.042515,0.199682,51,x
16:14.5,-135.64122,10.229008,33.938931,0.137989,-0.013693,0.115744,0.202899,51,x
16:14.7,-108.496185,2.89313,-137.977097,0.107409,-0.056424,0.221692,0.200759,51,x
16:14.9,7.519084,-19.007633,-184.916031,-0.004844,-0.012124,0.180666,0.200035,51,x
16:15.1,114.106873,42.557251,-10.549619,-0.041351,0.026981,0.125595,0.201162,51,x
16:15.3,59.396946,65.435112,169.526718,0.054828,0.021054,0.022407,0.198346,51,x
16:16.3,36.244274,31.801527,-13.053435,-0.030093,0.081186,0.116773,1.024509,52,x
16:16.5,-35.763359,80.458015,96.725189,0.030147,0.031879,0.049307,0.20103,52,x
16:16.7,-81.900764,11.312977,-1.030534,0.115988,-0.002463,0.069928,0.200751,52,x
16:16.9,-73.351143,-31.496183,-126.061066,0.132794,-0.039565,0.219067,0.200953,52,x
16:17.1,71.938934,-32.068703,-184.229004,-0.052798,-0.045897,0.181695,0.19939,52,x
16:17.3,95.847328,81.137405,98.007637,-0.09055,-0.023517,0.063488,0.202116,52,x
16:17.5,-90.862595,47.587788,81.167938,0.174604,0.027847,0.133957,0.200364,52,x
16:18.5,25.770992,22.458015,26.335878,-0.03813,0.065761,0.142969,1.022882,53,x
16:18.7,-3.763359,58.793892,86.419846,-0.084271,0.01916,0.060132,0.199034,53,x
16:18.9,-123.64122,-30.656488,88.213737,0.066437,0.000947,0.054476,0.201645,53,x
16:19.1,-88.610687,-41.541985,-94.656487,0.082052,-0.03058,0.178772,0.202698,53,x
16:19.3,-4.664122,-21.564886,-165.145035,0.025059,-0.049848,0.221692,0.200311,53,x
16:19.5,95.839691,19.206106,-190.07634,-0.111063,-0.057426,0.179963,0.201009,53,x
16:19.7,97.488548,100.870232,74.992363,-0.07691,-0.003843,0.064597,0.199315,53,x
16:19.9,-27.564886,49.366413,91.67939,0.073798,0.027657,0.149978,0.19931,53,x
16:20.9,0.061069,77.236641,213.679382,-0.038022,-0.006549,0.020946,1.023624,54,x
16:21.1,-207.56488,21.259542,61.938931,0.068873,-0.044301,0.040052,0.203245,54,x
16:21.3,-139.251907,36.229008,-192.755722,0.078047,-0.099399,0.211409,0.199917,54,x
16:21.5,59.801525,-2.977099,-247.572525,0.014938,-0.087627,0.189732,0.201213,54,x
16:21.7,216.213745,91.755722,-99.496185,-0.132523,-0.088033,0.142103,0.200831,54,x
16:21.9,15.778625,123.229004,246.068695,-0.089548,-0.042,0.04219,0.198268,54,x
16:22.1,18.564886,-29.61832,14.748092,0.123403,0.06476,0.111658,0.202115,54,x
16:25.0,-27.458015,12.885496,-37.076336,-0.056506,0.034315,0.095123,2.827776,55,x
16:25.2,-107.083969,-12.083969,68.656487,-0.038834,-0.018862,0.024437,0.20339,55,x
16:25.4,-116.610687,-5.068702,-56.122139,0.075774,-0.069414,0.221692,0.198141,55,x
16:25.6,75.213737,-31.847328,-179.625961,-0.03169,-0.08576,0.221692,0.20314,55,x
16:25.8,195.824432,52.755726,-40.183205,-0.105813,-0.052013,0.139776,0.200805,55,x
16:26.0,105.39695,156.145035,131.061066,-0.054124,-0.004086,0.052067,0.19991,55,x
16:26.2,-77.671753,-35.145039,41.496181,0.12841,0.045248,0.160776,0.200436,55,x
16:27.0,24.732824,93.091606,19.274809,-0.056397,0.058427,0.07323,0.822701,56,x
16:27.2,-173.015274,57.32061,127.587784,0.012665,-0.03629,0.04357,0.198881,56,x
16:27.4,-176.801529,4.961832,-23.916031,0.09285,-0.104947,0.177987,0.202035,56,x
16:27.6,-30.229008,152.396942,-250.129776,0.0374,-0.137124,0.178799,0.201958,56,x
16:27.8,159.427475,84.809158,-100.389313,-0.060863,-0.072337,0.167595,0.198447,56,x
16:28.0,105.824425,103.015266,79.725189,-0.056803,-0.008416,0.079454,0.201897,56,x
16:28.2,-31.648855,16.900763,97.816795,0.029741,0.036588,0.044517,0.201064,56,x
16:28.9,-17.213741,14.564885,-1.977099,-0.007659,0.055044,0.08465,0.720213,57,x
16:29.1,-89.732826,126.160309,69.007637,-0.118451,0.003193,0.091307,0.203329,57,x
16:29.3,-141.625961,-38.763359,84.114502,0.001786,-0.05085,0.079427,0.198022,57,x
16:29.5,-62.175571,-9.351145,-138.557251,0.019809,-0.100996,0.220989,0.202388,57,x
16:29.7,38.572517,122.229004,-240.755722,-0.211328,-0.1483,0.195578,0.201567,57,x
16:29.9,202.213745,34.374046,-28.213741,-0.053799,-0.078913,0.150898,0.199959,57,x
16:30.1,91.908394,77.671753,86.099236,-0.06162,0.008714,0.023598,0.19978,57,x
16:30.3,-71.839691,15.091603,91.389313,0.091524,0.011501,0.128599,0.200195,57,x
16:31.0,41.694656,-37.877861,4.450382,-0.086815,0.065328,0.125703,0.622937,58,x
16:31.2,-99.625954,69.977097,110.374046,-0.03123,-0.005548,0.036155,0.199704,58,x
16:31.4,-141.152664,40.511452,36.061069,0.075233,-0.061891,0.136285,0.200314,58,x
16:31.6,-52.145039,-51.603054,-153.366409,0.023923,-0.089197,0.221692,0.203015,58,x
16:31.8,37.496181,38.885498,-192.893127,-0.037643,-0.071417,0.16976,0.200288,58,x
16:32.0,148.007629,33.503819,-78.129768,-0.052527,-0.048062,0.138233,0.200701,58,x
16:32.2,44.572517,168.954193,132.755722,-0.090441,-0.006874,0.119777,0.201075,58,x
16:32.4,-19.778625,47.251907,11.870229,0.048603,0.026629,0.103052,0.200077,58,x
16:33.1,75.076332,18.267176,-5.206107,-0.058373,0.057615,0.18248,0.721951,59,x
16:33.3,-72.374046,129.473282,126.763359,-0.037319,0.021596,0.040241,0.201461,59,x
16:33.5,-123.35878,34.549618,-32.809162,-0.007956,-0.014559,0.101672,0.200975,59,x
16:33.7,-119.564888,23.984734,-110.610687,0.019755,-0.075801,0.169165,0.200241,59,x
16:33.9,77.412216,-29.229008,-185.328247,-0.010419,-0.116827,0.193223,0.200491,59,x
16:34.1,118.236641,1.038168,-97.129768,-0.060294,-0.063109,0.15899,0.199148,59,x
16:34.3,113.587784,52.435116,57.931297,-0.04108,-0.010419,0.086842,0.201005,59,x
16:34.5,20.335878,59.061069,153.64122,0.001948,-0.00157,0.083757,0.202378,59,x
16:35.2,51.587788,79.839691,-7.770992,-0.063379,0.037968,0.085516,0.721683,60,x
16:35.4,-24.229008,48.534351,117.442749,-0.052933,0.022597,0.055829,0.199788,60,x
16:35.6,-108.954201,26,53.70229,0.060592,-0.029822,0.140723,0.201656,60,x
16:35.8,-84.312981,-71.549622,-99.206108,0.030282,-0.066302,0.221692,0.19932,60,x
16:36.0,-4.564886,13.274809,-174.43512,-0.025357,-0.071606,0.189191,0.202351,60,x
16:36.2,143.816788,-0.954198,-32.839695,-0.068684,-0.028523,0.145026,0.200435,60,x
16:36.4,102.114502,53.893131,88.595421,-0.041621,0.01234,0.017482,0.200946,60,x
16:37.2,79.290077,-41.351147,23.977098,-0.090766,0.056424,0.157637,0.822421,61,x
16:37.4,8.412213,84.595421,37.328243,-0.07028,0.04587,0.073149,0.200687,61,x
16:37.6,-143.351151,73.839691,79.366409,0.023273,-0.044111,0.057994,0.200649,61,x
16:37.8,-111.618324,-10.114504,-93.267174,0.075638,-0.103675,0.172872,0.200643,61,x
16:38.0,-9.061069,6.526718,-206.465652,0.02257,-0.104947,0.152143,0.201057,61,x
16:38.2,126.893127,23.80916,-91.618324,-0.053691,-0.072526,0.189434,0.199709,61,x
16:38.4,151.671753,63.427483,28.938931,-0.051851,-0.025817,0.065084,0.200075,61,x
16:38.6,-41.35878,95.862595,72.167938,-0.01759,0.024302,0.095069,0.202012,61,x
17:15.1,46.778625,-42.832062,9.908397,-0.031987,0.048252,0.144863,36.437768,62,x
17:15.3,21.526718,34.717556,6.938931,-0.043624,0.052284,0.123782,0.200951,62,x
17:15.5,-48.442749,31.816793,61.61832,-0.046357,0.025411,0.038726,0.200999,62,x
17:15.7,-80.435112,29.603054,30.160305,-0.014262,0.017807,0.091605,0.200047,62,x
17:15.9,-92.549622,4.793893,-7.725191,-0.011961,-0.003275,0.146054,0.200986,62,x
17:16.1,-36.442749,-3.748092,-73.885498,-0.000108,-0.009607,0.173711,0.201016,62,x
17:16.3,26.480917,-16.969465,-81.305344,-0.000352,-0.028929,0.164889,0.199951,62,x
17:16.5,63.65649,-22.389313,-65.465652,-0.058508,-0.027089,0.14443,0.201005,62,x
17:16.7,73.633591,-15.847328,10.748092,-0.045789,0.001732,0.126109,0.200995,62,x
17:16.9,57.435116,-4.664122,28.908398,-0.016806,0.022705,0.118965,0.201046,62,x
17:17.1,43.396946,6.374046,51.816795,-0.026467,0.031933,0.091389,0.199991,62,x
17:17.3,-7.129771,-8.59542,60.007633,0.04587,0.054205,0.100671,0.200963,62,x
17:17.5,1.755725,31.946566,-61.404579,0.020405,0.055883,0.117558,0.201003,62,x
17:19.0,28.572519,-14.19084,32.992367,-0.01805,0.054611,0.12186,1.524998,63,x
17:19.2,-16.366413,22.091602,31.32061,-0.015994,0.040079,0.093932,0.200623,63,x
17:19.4,-45.374046,6.908397,51.946564,0.008497,0.027766,0.118153,0.200005,63,x
17:19.6,-74.893127,22.801527,15.206107,0.001326,0.013666,0.124242,0.200999,63,x
17:19.8,-62.65649,-10.938931,-46.450382,-0.002787,-0.00138,0.185592,0.201011,63,x
17:20.0,-15.083969,15.374045,-61.564884,-0.019891,-0.014235,0.161317,0.200032,63,x
17:20.2,27.007633,14.175572,-87.427483,-0.027197,-0.028063,0.173143,0.200954,63,x
17:20.4,75.412216,-20.984734,-43.450382,-0.046439,-0.015615,0.156311,0.201048,63,x
17:20.6,78.793892,7.770992,22.030535,-0.055883,0.000866,0.113471,0.200951,63,x
17:20.8,53.267174,18.687023,52.541985,-0.036967,0.021839,0.093094,0.201002,63,x
17:21.0,-6.59542,5.877862,68.236641,0.002787,0.040458,0.062378,0.200002,63,x
17:21.2,-11.450381,12.045801,7.870229,0.028659,0.065842,0.128464,0.199996,63,x
17:22.5,23.473282,3.648855,5.526718,-0.039429,0.056235,0.109737,1.325,64,x
17:22.7,1.954198,23.48855,31.977098,-0.028848,0.044463,0.08852,0.201046,64,x
17:22.9,-49,36.64122,24.984734,-0.007713,0.031987,0.09442,0.200954,64,x
17:23.1,-69.259544,5.885496,13.702291,0.015642,0.018781,0.120074,0.201437,64,x
17:23.3,-70.854965,26.519083,-39.145039,0.012557,0.011664,0.146487,0.199563,64,x
17:23.5,-17.564886,1.167939,-75.450378,-0.014099,-0.008876,0.171763,0.201003,64,x
17:23.7,24.267176,-5.435114,-73.625954,-0.023409,-0.018889,0.152847,0.199999,64,x
17:23.9,71.290077,20.053434,-32.526718,-0.061702,-0.006305,0.151981,0.201045,64,x
17:24.1,74.656487,-1.083969,13.374045,-0.047386,0.005629,0.094798,0.201,64,x
17:24.3,26.106871,8.450381,58.923664,-0.032664,0.023544,0.081267,0.199957,64,x
17:24.5,-8.580153,4.984733,42.763359,0.007361,0.042677,0.099128,0.200999,64,x
17:24.7,-3.099237,14.114504,-9.351145,-0.013125,0.046168,0.116962,0.200998,64,x
17:26.2,-16.839695,19.625954,20.480917,-0.025249,0.042379,0.08557,1.424,65,x
17:26.4,-54.030533,30.580153,40.290077,0.009066,0.019918,0.074042,0.201051,65,x
17:26.6,-77.274811,2.007634,2.099237,0.034964,0.014208,0.143321,0.199948,65,x
17:26.8,-55.748093,-4.839694,-31.770992,0.017374,-0.002706,0.16589,0.201045,65,x
17:27.0,-15.992367,4.717557,-51.70229,0.003924,-0.013829,0.165457,0.200957,65,x
17:27.2,34.694656,-26.503817,-55.045803,-0.003356,-0.0164,0.179394,0.199998,65,x
17:27.4,52.435116,-14.061069,-23.587786,-0.016291,-0.008795,0.131359,0.201,65,x
17:27.6,61.366413,2.648855,13.312977,-0.007226,0.012476,0.123024,0.201046,65,x
17:27.8,48.305344,-0.274809,50.610687,0.013342,0.026981,0.108005,0.199954,65,x
17:28.0,0.320611,17.778625,36.259541,0.030526,0.032745,0.091253,0.201068,65,x
17:28.2,-3.175573,-14.40458,-17.030535,0.024789,0.04514,0.131603,0.200933,65,x
17:28.4,6.496183,-23.412214,-3.580153,0.02579,0.053312,0.116286,0.200999,65,x
17:29.6,26.152672,-36.67939,19.12977,-0.013612,0.046384,0.121238,1.223046,66,x
17:29.8,-5.946565,34.442749,24.450382,-0.027793,0.034098,0.096341,0.201955,66,x
17:30.0,-33.908398,36.122139,35.64122,-2.70E-05,0.029931,0.101023,0.199999,66,x
17:30.2,-49.923664,6.099236,21.923664,0.016345,0.014099,0.119263,0.201001,66,x
17:30.4,-68.39695,45.870228,-40.068703,0.028469,-0.012449,0.132604,0.200002,66,x
17:30.6,-43.839695,-2.801527,-65.992363,-0.005954,-0.023355,0.159287,0.201997,66,x
17:30.8,24.412214,5.152672,-67.64122,-0.024437,-0.017672,0.183481,0.200002,66,x
17:31.0,67.412216,1.450382,-30.335878,-0.029579,-0.024681,0.143943,0.201036,66,x
17:31.2,60.351147,-4.061069,4.839694,-0.040241,-0.001624,0.124025,0.199963,66,x
17:31.4,47.824429,4.603054,40.396946,-0.020838,0.020892,0.127138,0.201,66,x
17:31.6,6.175572,42.213741,34.885498,-0.031663,0.012151,0.068223,0.200988,66,x
17:32.9,28.931297,-13.374045,20.51145,-0.02828,0.040214,0.110143,1.324004,67,x
17:33.1,-15.526717,20.938931,30.793894,-0.004465,0.027874,0.079535,0.200995,67,x
17:33.3,-45.687023,2.290076,43.305344,0.022759,0.017753,0.096097,0.200001,67,x
17:33.5,-69.053436,20.053434,-18.564886,0.025871,0.008985,0.139316,0.201,67,x
17:33.7,-23.61832,-19.877863,-50.34351,-0.012449,-0.015804,0.135716,0.201001,67,x
17:33.9,-3.19084,2.854962,-64.061066,-0.009499,-0.015831,0.13577,0.201048,67,x
17:34.1,35.083969,7.465649,-50.366413,-0.039971,-0.017482,0.157528,0.199951,67,x
17:34.3,67.167938,0.236641,-2.877863,-0.039024,-0.006305,0.134444,0.201,67,x
17:34.5,49.862595,6.801527,31.083969,-0.016345,0.011177,0.097721,0.200045,67,x
17:34.7,24.312977,32.801525,42.511452,0.018077,0.027739,0.097072,0.200956,67,x
17:36.1,24.259542,-61.709923,28.427481,-0.016562,0.041757,0.128437,1.324999,68,x
17:36.3,1.648855,31.610687,21.854961,-0.014153,0.024518,0.076153,0.20005,68,x
17:36.5,-48.511452,27.29771,25.832062,0.019295,0.025655,0.105326,0.201015,68,x
17:36.7,-47.0229,8.854961,-17.015266,0.00958,0.005872,0.139938,0.200935,68,x
17:36.9,-57.648853,-8.862596,-43.557251,0.019187,-0.011366,0.149166,0.2,68,x
17:37.1,-26.687023,-5.030534,-70.175575,0.012665,-0.010798,0.166567,0.201,68,x
17:37.3,40.519085,-8.740458,-45.473282,-0.011474,-0.022218,0.17612,0.201,68,x
17:37.5,63.717556,3.267176,-15.938931,-0.022624,-0.006333,0.130141,0.200001,68,x
17:37.7,57.534351,1.061069,37.839695,-0.038049,-0.000108,0.11634,0.200999,68,x
17:37.9,14.366412,24.160305,29.603054,0.019295,0.024302,0.126488,0.201048,68,x
17:38.1,-15.167939,4.122138,-7.076336,0.060754,0.036831,0.102186,0.200953,68,x
17:39.5,7.732824,21.564886,19.580153,-0.037752,0.033963,0.085543,1.423999,69,x
17:39.7,-30.167938,20.007633,29.793894,-0.013423,0.027874,0.110034,0.20035,69,x
17:39.9,-44.64122,28.931297,8.206107,-0.001001,0.026656,0.108438,0.200999,69,x
17:40.1,-54.870228,14.541985,-22.893129,0.012178,0.007361,0.116232,0.201001,69,x
17:40.3,-46.900764,13.19084,-51.519085,0.011447,-0.008037,0.162129,0.201,69,x
17:40.5,-7.175572,8.38168,-68.916031,-0.02238,-0.022786,0.159152,0.2,69,x
17:40.7,42.419846,-5.51145,-40.450382,-0.045518,-0.015317,0.165674,0.201044,69,x
17:40.9,69.145035,13.19084,-8.931297,-0.036074,-0.003329,0.129276,0.199956,69,x
17:41.1,44.198475,23.106871,44.740459,-0.030472,0.006766,0.097721,0.201,69,x
17:41.3,-3.725191,10.916031,62.534351,0.02579,0.027414,0.083568,0.201,69,x
17:42.8,-5.648855,2.160305,38.122139,-0.021623,0.038563,0.118288,1.524581,70,x
17:43.0,-26.259542,-1.473282,48.67939,0.012746,0.029281,0.104405,0.200996,70,x
17:43.2,-48.396946,35.030533,-5.473282,0.012367,0.021487,0.105813,0.201001,70,x
17:43.4,-68.503815,-15.229008,-7.908397,0.01732,0.000352,0.112064,0.200617,70,x
17:43.6,-39.213741,7.229008,-40.129772,0.029714,-0.014451,0.150411,0.199999,70,x
17:43.8,7.305344,1.290076,-68.618324,0.013585,-0.016102,0.1401,0.200999,70,x
17:44.0,25.450382,-22.251909,-60.908398,-0.021217,-0.022029,0.178934,0.201046,70,x
17:44.2,74.595421,4.29771,-8.648855,-0.01805,-0.009661,0.137367,0.200954,70,x
17:44.4,54.305344,18.312977,9.442748,-0.006224,0.016102,0.092038,0.2,70,x
17:46.1,36.908398,-19.045801,20.748091,-0.017699,0.038753,0.110116,1.626001,71,x
17:46.3,8.763359,9.145039,50.274811,-0.014857,0.026873,0.105353,0.199999,71,x
17:46.5,-59.900764,15.099236,26.099237,0.019647,0.025871,0.127056,0.201003,71,x
17:46.7,-59.770992,34.740459,-7.541985,0.035343,0.01326,0.14351,0.200997,71,x
17:46.9,-45.030533,-39.793892,-50.32061,0.011826,-0.013693,0.166784,0.200001,71,x
17:47.1,8.992367,-26.022902,-53.763359,0.004113,-0.003951,0.187919,0.200999,71,x
17:47.3,53.35878,-18.435114,-41.305344,-0.017969,-0.008741,0.152008,0.201002,71,x
17:47.5,65.404579,6.160306,2.610687,-0.030364,0.000541,0.116556,0.200999,71,x
17:47.7,38.9771,15.824428,39.778625,-0.023544,0.021541,0.105921,0.199999,71,x
17:49.1,24.801527,-25.832062,14.549619,-0.031419,0.041134,0.12205,1.425001,72,x
17:49.3,-13.389313,9.763359,43.221375,0.00571,0.029931,0.085408,0.200999,72,x
17:49.5,-41.969467,3.351145,26.045801,0.023842,0.023869,0.113363,0.200001,72,x
17:49.7,-53.900764,16.183207,-18.557251,0.026629,0.006333,0.130466,0.2,72,x
17:49.9,-30.839695,-0.259542,-52.694656,0.013044,0.004113,0.151493,0.201,72,x
17:50.1,0.091603,-19.305344,-51.961834,-0.000162,-0.010094,0.15945,0.201,72,x
21:37.2,10.091603,-1.015267,-17.458015,-0.006224,0.041297,0.14259,227.151263,73,c
21:37.4,21.229008,-19.396946,-0.343511,0.014749,0.035911,0.117287,0.201013,73,c
21:37.6,-26.114504,-45.709923,-67.244278,0.02008,0.021974,0.079211,0.201518,73,c
21:37.8,-115.022903,-47.938931,14.106871,-0.082106,-0.011691,0.110305,0.199121,73,c
21:38.0,-41.137405,49.961834,109.664124,-0.065923,-0.012178,0.174469,0.201532,73,c
21:38.2,61.213741,75.244278,53.259541,0.050904,-0.012909,0.221692,0.200596,73,c
21:38.4,105.267174,-25.572519,-2.80916,0.015371,-0.020486,0.133714,0.200663,73,c
21:38.6,51.412212,-90.946564,-42.435116,0.003329,0.011528,0.059672,0.200786,73,c
21:39.6,14.648855,-11.923664,-21.38168,0.033801,0.037643,0.115041,0.920441,74,c
21:39.8,-28.687023,-121.404579,-55.488548,-0.030553,0.002138,0.082783,0.203617,74,c
21:40.0,-127.374046,-15.793893,55.67939,-0.045302,-0.030824,0.143456,0.201034,74,c
21:40.2,11.038168,68.702293,133.160309,0.01667,-0.027793,0.221692,0.200574,74,c
21:40.4,123.503815,13.106871,54.267174,0.065761,-0.0479,0.182885,0.198979,74,c
21:40.6,85.229004,-61.839695,-24.519083,0.035424,-0.012936,0.07802,0.200721,74,c
21:40.8,-12.236641,-130.267181,-33.305344,-0.048712,0.023328,0.042406,0.201175,74,c
21:41.6,8.656488,-46.633587,-7.793893,0.050038,0.036182,0.095313,0.822536,75,c
21:41.8,-77.312981,-108.381676,-18.984734,-0.019133,-0.010229,0.047846,0.199854,75,c
21:42.0,-92.763359,62.137405,82.946564,-0.011826,-0.016941,0.198609,0.202219,75,c
21:42.2,41.70229,64.557251,87.435112,0.055071,-0.035884,0.215739,0.201342,75,c
21:42.4,122.656487,17.893129,18.496183,0.084082,-0.046926,0.168651,0.19879,75,c
21:42.6,73.404579,-61.274811,-19.229008,0.016643,-0.013802,0.074285,0.200587,75,c
21:42.8,-12.351145,-73.221375,-36.908398,-0.046303,0.031636,0.105867,0.200033,75,c
21:43.6,-16.946566,-42.877861,-61.786259,0.053826,0.013125,0.074854,0.824691,76,c
21:43.8,-125.305344,-54.923664,-1.51145,-0.037643,-0.024708,0.113823,0.200729,76,c
21:44.0,-17.61832,57.274811,119.71756,-0.019458,-0.025276,0.216226,0.199712,76,c
21:44.2,41.282444,32.061069,94.801529,0.06319,-0.033963,0.20992,0.201282,76,c
21:44.4,103.656487,0,-19.053434,0.033476,-0.034721,0.14397,0.198429,76,c
21:44.6,58.938931,-55.67939,-60.923664,0.01069,-0.006766,0.095935,0.20083,76,c
21:44.8,-42.694656,-14.984733,-4.687023,-0.045627,0.027901,0.097586,0.200473,76,c
21:45.8,-18.786259,-59.824429,-93.687019,0.03767,0.000595,0.086112,0.922811,77,c
21:46.0,-116.305344,-31.87023,33.832062,-0.047737,-0.027468,0.121428,0.204188,77,c
21:46.2,-31.984734,39.038166,124.793892,0.015074,-0.028117,0.187378,0.200639,77,c
21:46.4,63.213741,33.068703,81.938934,0.028956,-0.049551,0.221692,0.200341,77,c
21:46.6,110.557251,-10.259542,-7.061069,0.041432,-0.038861,0.147272,0.199218,77,c
21:46.8,57.893131,-88.412216,-41.519085,0.024626,0.001678,0.057913,0.20042,77,c
21:47.0,-42.045803,-36.32061,-32.145039,-0.044815,0.029822,0.114256,0.203292,77,c
21:47.8,-15.229008,12.419847,-46.610687,0.029606,0.017076,0.084731,0.819795,78,c
21:48.0,-81.763359,26.076336,-79.618324,-0.09764,-0.036317,0.054205,0.202698,78,c
21:48.2,-81.664124,33.938931,90.068703,-0.054124,-0.030337,0.179286,0.20012,78,c
21:48.4,67.71756,36.877861,37.114502,0.034694,-0.018023,0.204589,0.20065,78,c
21:48.6,118.206108,-24.305344,26.893129,0.058806,-0.030905,0.136203,0.19974,78,c
21:48.8,73.129768,-73.893127,-44.290077,0.004357,-0.010879,0.112578,0.201551,78,c
21:49.0,-8.053435,-35.068703,-39.328243,-0.061756,0.031663,0.105759,0.201194,78,c
21:49.8,-11.251908,-34.992367,-53.809162,0.020919,0.013477,0.083486,0.820307,79,c
21:50.0,-138.35878,-21.587786,43.099236,-0.100184,-0.024816,0.135148,0.203413,79,c
21:50.2,-23.145039,94.572517,90.198471,-0.01391,-0.003545,0.203074,0.200433,79,c
21:50.4,55.671757,49.396946,45.992367,0.029525,-0.018132,0.189489,0.200231,79,c
21:50.6,79.35878,-35.061069,-25.389313,0.013179,-0.015994,0.122618,0.20062,79,c
21:50.8,-13.114504,-72.259544,-44.488548,-0.015885,0.010798,0.042975,0.200736,79,c
21:51.5,1.549618,-10.389313,-22.083969,0.032529,0.017239,0.106165,0.720854,80,c
21:51.7,-70.229004,-62.839695,-63.70229,-0.051256,-0.018781,0.072364,0.202028,80,c
21:51.9,-78.587784,56.969467,73.39695,-0.047142,-0.01686,0.190815,0.199225,80,c
21:52.1,10.40458,50.893131,72.312981,0.022353,-0.021731,0.221692,0.200764,80,c
21:52.3,86.068703,-4.427481,50.877861,0.041676,-0.024816,0.159856,0.202086,80,c
21:52.5,73.671753,-52.870228,-23.885496,0.002354,-0.000352,0.097342,0.199807,80,c
21:52.7,-19.793894,-97.106873,-44.328243,-0.044219,0.01759,0.078074,0.202801,80,c
21:53.6,-33.541985,31.549618,-130.969467,-0.00368,-0.009715,0.052013,0.821552,81,c
21:53.8,-131.603058,0.183206,57.931297,-0.078128,-0.035749,0.156662,0.201439,81,c
21:54.0,-1.229008,29.427481,99.656487,-0.026575,-0.017157,0.221692,0.200745,81,c
21:54.2,96.946564,18.664122,66.290077,0.064083,-0.032691,0.16497,0.200728,81,c
21:54.4,78.419846,-50.083969,-31.572519,0.00682,-0.004438,0.083486,0.200598,81,c
21:54.6,-24.641222,-83.564888,-45.664124,-0.09009,0.017374,0.071579,0.198284,81,c
21:55.4,6.427481,-63.236641,-60.877861,0.019755,0.018862,0.056397,0.824295,82,c
21:55.6,-160.770996,-52.083969,15.083969,-0.100509,-0.041676,0.14056,0.199604,82,c
21:55.8,-27.564886,11.679389,143.908401,-0.014776,-0.026846,0.221692,0.200494,82,c
21:56.0,106.343513,61.61832,37.595421,0.006955,-0.046547,0.199907,0.201488,82,c
21:56.2,97.427483,-70.404579,-7.793893,0.029444,-0.007307,0.094284,0.201147,82,c
21:56.4,6.160306,-54.076336,-82.763359,-0.034558,0.033286,0.057209,0.20131,82,c
21:57.0,18.465649,-13.916031,-32.427483,0.032583,0.036128,0.096612,0.619794,83,c
21:57.2,-123.274811,-31.534351,-115.290077,-0.114067,-0.034125,0.030337,0.202945,83,c
21:57.4,-117.801529,10.366412,105.450378,-0.077695,-0.039105,0.221692,0.200676,83,c
21:57.6,90.656487,-21.534351,80.908394,0.042948,-0.040755,0.21536,0.197819,83,c
21:57.8,116.083969,-33.824429,-5.419847,0.036967,-0.020892,0.095502,0.201153,83,c
21:58.0,-20.824427,-81.106873,-46.664124,-0.028117,0.026629,0.053745,0.201445,83,c
21:58.8,-25.740458,55.274811,-87.893127,-0.009932,0.006982,0.087032,0.822997,84,c
21:59.0,-141.183212,-65.847328,48.175571,-0.103052,-0.037941,0.131062,0.201406,84,c
21:59.2,-10.160305,-0.030534,121.572517,-0.009499,-0.04108,0.221692,0.200822,84,c
21:59.4,130.213745,11.832061,71.832062,0.066681,-0.047981,0.170789,0.200825,84,c
21:59.6,82.648857,-36.923664,-70,0.016102,-0.001515,0.071525,0.200421,84,c
21:59.8,-44.412212,-68.832062,-46.824429,-0.066519,0.034964,0.09469,0.200655,84,c
22:00.7,-30.206106,-43.145039,-98.251907,0.050931,0.000785,0.068061,0.820979,85,c
22:00.9,-166.480911,-71.923668,115.618324,-0.098073,-0.065842,0.221692,0.202145,85,c
22:01.1,51.67939,6.694656,152.511444,0.04514,-0.06522,0.221692,0.199269,85,c
22:01.3,137.045807,11.763359,2.969466,0.066221,-0.033557,0.124621,0.202671,85,c
22:01.5,42.824429,-84.305344,-79.381676,0.012151,0.009769,0.036453,0.200784,85,c
22:02.3,33.824429,32.442749,-57.29771,0.058292,0.035803,0.109818,0.821822,86,c
22:02.5,-93.877861,-35.076336,-105.35878,-0.082972,-0.025087,0.037752,0.200499,86,c
22:02.7,-104.03817,-38.610687,106.763359,-0.072851,-0.03602,0.162995,0.200736,86,c
22:02.9,86.374046,90.595421,91.832062,0.049199,-0.053908,0.221692,0.199335,86,c
22:03.1,129.267181,-44.152672,-0.549618,0.056587,-0.02828,0.089251,0.203106,86,c
22:03.3,-26.267176,-81.351143,-58.106869,-0.01529,0.014911,0.054855,0.200662,86,c
22:04.0,-14.656488,13.908397,-107.877861,0.065923,0.008876,0.073609,0.720886,87,c
22:04.2,-154.015274,-14.206107,-10.740458,-0.122131,-0.052798,0.109764,0.201493,87,c
22:04.4,-44.251907,2.625954,178.595413,0.013531,-0.055152,0.221692,0.199026,87,c
22:04.6,139.389313,18.267176,53.282444,0.066735,-0.0607,0.17842,0.200588,87,c
22:04.8,91.557251,-28.366413,-75.511452,0.032069,-0.018998,0.074502,0.200994,87,c
22:05.0,-20.549618,-2.564885,-97.770996,-0.040377,0.02211,0.073798,0.199871,87,c
22:05.8,-84.702293,-98.526718,-69.67939,-0.06024,-0.028145,0.068007,0.822395,88,c
22:06.0,-111.213737,-55.374046,184.099243,-0.004898,-0.083297,0.220745,0.203738,88,c
22:06.2,104.389313,19.366413,85.564888,0.067655,-0.060511,0.221692,0.199688,88,c
22:06.4,129.671753,-11.152672,-18.053434,0.044084,-0.036182,0.098912,0.199824,88,c
22:06.6,-34.137405,-64.450378,-100.755722,0.003762,-0.005548,0.006549,0.202551,88,c
22:07.6,-4.458015,-34.824429,-60.603054,0.044382,0.016183,0.037373,0.921844,89,c
22:07.8,-147.832062,-71.351143,31.633587,-0.092606,-0.050823,0.125839,0.201156,89,c
22:08.0,-2.412214,40.70229,147.045807,0.049307,-0.046601,0.221692,0.200666,89,c
22:08.2,124.145035,15.633588,42.969467,0.081619,-0.045924,0.131765,0.200401,89,c
22:08.4,73.297707,-14.770992,-96.702293,0.030066,-0.013748,0.054124,0.201131,89,c
22:09.2,40.396946,52.129772,-51.198475,0.034721,0.025465,0.102619,0.822335,90,c
22:09.4,-138.618317,-91.015266,-47.709923,-0.081809,-0.0269,0.054341,0.201093,90,c
22:09.6,-76.847328,-2.801527,131.099243,-0.043137,-0.03767,0.193142,0.200336,90,c
22:09.8,71.244278,23.709923,96.709923,0.052527,-0.042,0.206024,0.198394,90,c
22:10.0,114.32061,-55.34351,-9.755725,0.059753,-0.028442,0.110034,0.203143,90,c
22:10.2,-7.030534,-206.175568,-62.236641,-0.04062,0.017888,0.062649,0.201278,90,c
22:10.9,19.732824,-25.893129,-49.664124,0.046384,0.034558,0.102105,0.721363,91,c
22:11.1,-52.610687,-40.664124,-80.694656,-0.01621,-0.018077,0.110224,0.201219,91,c
22:11.3,-131.992371,-10.076336,57.969467,-0.078669,-0.023815,0.152847,0.200112,91,c
22:11.5,-6.229008,62.671757,88.206108,-0.011285,-0.020161,0.221692,0.201132,91,c
22:11.7,99.229004,-10.954199,27.801527,0.047927,-0.027333,0.15807,0.20048,91,c
22:11.9,40.877861,-67.39695,-30.145039,0.013883,0.007577,0.051012,0.201196,91,c
22:12.6,22.122137,0.908397,-20.015266,0.030255,0.030634,0.115717,0.720721,92,c
22:12.8,-42.274811,-20.938931,-122.816795,-0.023463,-0.020405,0.043868,0.200071,92,c
22:13.0,-96.32061,-21.328245,64.091606,-0.088195,-0.027901,0.154281,0.201834,92,c
22:13.2,-4.21374,42.496181,102.900764,0.000947,-0.033801,0.221692,0.201808,92,c
22:13.4,129.625961,10.557252,54.832062,0.061783,-0.041378,0.16995,0.200225,92,c
22:13.6,33.923664,-67.404579,-76.305344,0.025303,-0.010121,0.065761,0.200188,92,c
22:14.5,-8.106871,-25.847328,-115.030533,0.024221,-0.003166,0.0584,0.820691,93,c
22:14.7,-129.427475,-64.725189,40.916031,-0.085462,-0.04817,0.129952,0.202196,93,c
22:14.9,-20.106871,21.893129,122.648857,0.027495,-0.041378,0.221692,0.201943,93,c
22:15.1,120.488548,5.114504,54.954197,0.057399,-0.039754,0.196849,0.19879,93,c
22:15.3,109.114502,-97.519081,-39.793892,0.022516,-0.023788,0.085354,0.202213,93,c
22:16.1,24.641222,-21.671755,-44.007633,0.067439,0.019214,0.097856,0.820531,94,c
22:16.3,-105.992363,-44.709923,-77.824425,-0.115934,-0.040512,0.061945,0.203216,94,c
22:16.5,-105.389313,-19.709923,139.259537,-0.056695,-0.055125,0.211842,0.200113,94,c
22:16.7,69.091606,25.61832,94.709923,0.04357,-0.054341,0.221692,0.198902,94,c
22:16.9,122.145035,-7.91603,-10.091603,0.041649,-0.028713,0.108844,0.200504,94,c
22:17.1,16.335878,-63.824429,-78.648857,-0.05039,0.004303,0.030201,0.203161,94,c
22:17.8,8.709924,-32.38168,-67.030533,0.050363,0.00958,0.072066,0.720333,95,c
22:18.0,-139.320618,8.664123,-39.473282,-0.067357,-0.03629,0.06614,0.202346,95,c
22:18.2,-67.900764,-5.59542,119.053436,-0.058887,-0.048522,0.221692,0.200349,95,c
22:18.4,107.351143,-27.961832,92.786263,0.069739,-0.041703,0.170329,0.199492,95,c
22:18.6,97.198471,-13.793893,-28.12977,0.038969,-0.026142,0.104974,0.202594,95,c
22:18.8,31.412214,-50.564884,-100.64122,-0.059807,0.002652,0.04974,0.200499,95,c
22:19.5,20.557251,-67.954201,-34.473282,0.035478,0.024437,0.098695,0.721239,96,c
22:19.7,-114.816795,-22.12977,-70.900764,-0.081755,-0.033692,0.044571,0.199434,96,c
22:19.9,-70.114502,39.64122,102.67939,-0.054259,-0.032556,0.201748,0.201226,96,c
22:20.1,80.900764,0.931298,109.229004,0.015588,-0.029444,0.221692,0.202538,96,c
22:20.3,101.236641,-7.664122,12.374045,0.049307,-0.019376,0.125054,0.200035,96,c
22:20.5,42.030533,-47.885498,-32.709923,0.020405,0.013396,0.06955,0.200394,96,c
22:21.4,17.625954,-31.480917,-81.519081,0.040404,0.013477,0.080428,0.822255,97,c
22:21.6,-138.633591,-24.458015,-33.091602,-0.069089,-0.042082,0.070307,0.201629,97,c
22:21.8,-57.908398,-8.38168,135.328247,-0.047737,-0.04062,0.221692,0.198358,97,c
22:22.0,74.374046,13.610687,103.312981,0.043245,-0.040864,0.205347,0.202216,97,c
22:22.2,98.740456,-32.847328,-13.022901,0.02441,-0.020405,0.113958,0.201506,97,c
22:22.4,34.923664,-72.671753,-79.091606,-0.00368,0.015642,0.063271,0.201063,97,c
22:23.2,-16.374046,-5.145038,-72.114502,0.020026,0.007821,0.052771,0.821675,98,c
22:23.4,-138.511444,-16.312977,10.816793,-0.080645,-0.044923,0.131251,0.20168,98,c
22:23.6,-18.091602,12.587787,95.030533,-0.01575,-0.027414,0.221692,0.199684,98,c
22:23.8,91.916031,14.641221,70.610687,0.038536,-0.033773,0.1903,0.19891,98,c
22:24.0,89.351143,-34.244274,-7.557252,0.021839,-0.00801,0.105542,0.2014,98,c
22:24.2,-30.015266,-67.702293,-62.473282,-0.087546,0.016697,0.039159,0.200038,98,c
22:24.8,16.19084,26.801527,-55.145039,0.051634,0.020675,0.090279,0.621333,99,c
22:25.0,-177.633591,-37.366413,-31.29771,-0.086463,-0.056857,0.10676,0.200639,99,c
22:25.2,-44.213741,-16.114504,111.35878,-0.039808,-0.038509,0.221692,0.201851,99,c
22:25.4,91.67939,7.870229,85.992363,0.031094,-0.047548,0.185673,0.201908,99,c
22:25.6,79.305344,-8.442748,-6.717557,0.033016,-0.000758,0.105948,0.198702,99,c
22:25.8,35.793892,-58.122139,-62.374046,-0.012557,0.012232,0.071525,0.203131,99,c
22:26.5,9.984733,-70.244278,-31.893129,0.02073,0.026142,0.082539,0.719935,100,c
22:26.7,-119.137405,-25.122137,-59.061069,-0.065355,-0.019458,0.08032,0.200992,100,c
22:26.9,-81.519081,4.954198,97.244278,-0.071038,-0.022651,0.201802,0.200354,100,c
22:27.2,38.854961,23.236641,92.687019,0.03242,-0.029416,0.212897,0.203681,100,c
22:27.4,80.618324,9.282443,15.625955,0.038293,-0.009742,0.122375,0.200132,100,c
22:27.6,42.938931,-71.442749,-30.61832,0.002084,0.013612,0.086977,0.200125,100,c
22:28.3,11.206107,42.64122,-70.732826,0.038293,0.018565,0.10722,0.722016,101,c
22:28.5,-71.938934,-66.145035,-89.954201,-0.058995,-0.017049,0.073203,0.200638,101,c
22:28.7,-67.045799,-26.145039,81.160309,-0.094122,-0.013802,0.180396,0.201481,101,c
22:28.9,5.923664,45.244274,100.152672,-0.000731,-0.019647,0.183779,0.200309,101,c
22:29.1,98.015266,13.312977,26.480917,0.052149,-0.019214,0.148517,0.19937,101,c
22:29.3,66.221375,-28.885496,-62.282444,0.0128,0.001028,0.094474,0.201626,101,c
22:29.5,-35.106869,-12.664123,-44.870228,-0.059591,0.019214,0.095691,0.201799,101,c
22:30.1,29.801527,-27.442749,-70.259544,0.043516,0.013206,0.014505,0.621217,102,c
22:30.3,-110.404579,-53.610687,-27.717558,-0.120562,-0.020269,0.133687,0.201397,102,c
22:30.5,-50.114502,0.763359,96.198471,-0.033097,-0.020784,0.195415,0.199971,102,c
22:30.7,37.053436,26.557251,63.236641,0.03196,-0.017022,0.221692,0.200778,102,c
22:30.9,85.351143,-7.328244,-1.015267,0.02671,-0.019268,0.141156,0.200213,102,c
22:31.1,32.427483,-106.290077,-54.419846,-0.018835,0.012286,0.020621,0.201669,102,c
24:07.0,11.801527,55.870228,-52.740459,-0.006468,0.045248,0.130277,95.934006,103,c
24:07.2,23.824427,-95.465652,-73.671753,0.035587,0.020297,0.100779,0.201792,103,c
24:07.4,-144.328247,-120.610687,-65.305344,-0.046817,-0.035127,0.074908,0.200499,103,c
24:07.6,-31.114504,-6.91603,165.847336,-0.078155,-0.03215,0.21812,0.201954,103,c
24:07.8,37.587788,-9.389313,147.71756,0.045627,-0.071309,0.193007,0.197893,103,c
24:08.0,185.083969,-18.045801,-5.961832,0.090171,-0.052419,0.143673,0.200963,103,c
24:08.2,81.862595,-137.458008,-203.885498,0.011068,-0.036588,0.042975,0.20253,103,c
24:08.4,12.839695,-36.572517,52.908398,-0.090279,0.0315,0.129708,0.200322,103,c
24:09.3,10.389313,-5.450382,-4.503817,0.061566,0.038401,0.155417,0.822254,104,c
24:09.5,7.877862,-73.465652,-150.580154,0.020134,0.002165,0.063136,0.200006,104,c
24:09.7,-93.244278,-119.381676,-70.748093,-0.097072,-0.019539,0.073879,0.199683,104,c
24:09.9,-114.748093,7.770992,191.045807,-0.046547,-0.060375,0.20992,0.202255,104,c
24:10.1,87.251907,-48.992367,192.801529,0.006874,-0.092282,0.205888,0.198653,104,c
24:10.3,169,5.900764,9.183207,0.105759,-0.047846,0.167054,0.202875,104,c
24:10.5,69.770996,-101.312981,-177.778625,-0.010933,-0.020161,0.082648,0.201578,104,c
24:11.7,35.198475,53.64122,-4.122138,0.036317,0.007875,0.159531,1.221662,105,c
24:11.9,24.908398,-105.343513,-135.824432,0.037102,0.009959,0.097694,0.203268,105,c
24:12.1,-110.305344,-118.106873,-56.030533,-0.021081,-0.006116,0.051743,0.197863,105,c
24:12.3,-199.083969,52.38168,173.328247,-0.010311,-0.115609,0.221692,0.2008,105,c
24:12.5,62.030533,18.366413,244.183212,0.040187,-0.121806,0.199366,0.201001,105,c
24:12.7,147.07634,-34.70229,69.740456,0.086328,-0.063352,0.162508,0.201774,105,c
24:12.9,137.229004,-29.267176,-125.763359,0.026467,-0.036967,0.111415,0.201565,105,c
24:13.1,4.038168,-54.580154,-142.2061,-0.116556,0.03058,0.080672,0.198694,105,c
24:14.1,27.007633,-112.572517,7.725191,0.13504,0.049632,0.112551,1.024012,106,c
24:14.3,-14.916031,-128.305344,-159.312973,0.045302,-0.003329,0.079508,0.200939,106,c
24:14.5,-154.671753,-96.770996,-11.824428,-0.032014,-0.012205,0.119073,0.201911,106,c
24:14.7,-120.755722,-8.687023,154.251907,-0.043759,-0.059942,0.221692,0.196956,106,c
24:14.9,34.580154,7.832061,224.07634,0.064489,-0.092742,0.221692,0.203526,106,c
24:15.1,129.389313,-2.870229,118.083969,0.041811,-0.070524,0.153767,0.200607,106,c
24:15.3,115.419846,-59.687023,-55.61832,0.056587,-0.011447,0.102078,0.200981,106,c
24:15.5,8.80916,-145.122131,-135.519089,-0.026548,0.015534,0.056966,0.201049,106,c
24:16.2,3.526718,40.015266,27.244274,0.003653,0.054584,0.121373,0.720695,107,c
24:16.5,39.435116,-73.687019,-83.465652,0.058292,0.035532,0.106597,0.20236,107,c
24:16.6,-61.389313,-149.07634,-94.625954,-0.012449,-0.000839,0.048847,0.198179,107,c
24:16.9,-147.351151,-6.534351,85.206108,-0.044003,-0.036615,0.160153,0.202784,107,c
24:17.0,-27.061069,-30.343512,205.221375,-0.002381,-0.102159,0.221692,0.198307,107,c
24:17.3,106.992363,-22.175573,178.847336,0.051716,-0.1004,0.182696,0.202428,107,c
24:17.5,137.56488,-23.755726,-13.793893,0.069117,-0.037292,0.115393,0.202731,107,c
24:17.7,33.900764,-77.366409,-125.877861,0.029768,0.005521,0.082539,0.199107,107,c
24:17.9,-50.938931,-17.969465,-98.969467,-0.117585,0.015452,0.12868,0.199669,107,c
24:18.6,41.427483,29.412214,14.992367,-0.007577,0.045275,0.129573,0.720952,108,c
24:18.8,6.129771,-107.519081,-74.458015,0.049172,0.03077,0.106273,0.200445,108,c
24:19.0,-73.618324,-122.099236,-90.496185,-0.006522,0.003437,0.069225,0.201018,108,c
24:19.2,-142.71756,-27.832062,80.900764,-0.013369,-0.023138,0.139803,0.203352,108,c
24:19.4,-6.267176,-15.870229,175.442749,0.035614,-0.06595,0.196092,0.198963,108,c
24:19.6,60.312977,51.664124,140.877869,0.053989,-0.086896,0.180504,0.201899,108,c
24:19.8,143.809158,-6.21374,1.687023,0.047548,-0.043976,0.13623,0.199652,108,c
24:20.0,51.885498,-44.282444,-150.366409,0.04292,-0.005385,0.075882,0.201533,108,c
24:20.2,-44.091602,32.786259,-65.351143,-0.124675,0.010906,0.095854,0.200433,108,c
24:20.9,3.251908,27.648855,14.320611,-0.004628,0.042758,0.11929,0.72229,109,c
24:21.1,17,-60.595421,-57.870228,0.056181,0.035072,0.09672,0.201464,109,c
24:21.3,-62.847328,-85.625954,-98.671753,-0.01188,-0.000108,0.061702,0.199108,109,c
24:21.5,-139.145035,-27.282442,55.969467,-0.045356,-0.035208,0.160451,0.202607,109,c
24:21.7,-10.473283,19.832062,154.755722,-0.027197,-0.064787,0.189516,0.200002,109,c
24:21.9,102.099236,2.198473,168.297714,0.057372,-0.080564,0.16378,0.199623,109,c
24:22.1,122.213737,-40.732826,-31.465649,0.052419,-0.020865,0.111929,0.201947,109,c
24:22.3,52.885498,-121.503815,-121.923668,0.036398,-0.003275,0.059347,0.200233,109,c
24:23.2,-8.061069,38.969467,6.740458,0.005006,0.050985,0.122726,0.923268,110,c
24:23.4,2.977099,-0.122137,-69.343513,0.00322,0.015534,0.124377,0.200476,110,c
24:23.6,-53.305344,-92.343513,-69.946564,-0.025222,-0.009959,0.089954,0.201648,110,c
24:23.8,-126.32061,-39.366413,56.213741,-0.05545,-0.042569,0.13117,0.198081,110,c
24:24.0,-40.870228,16.977098,144.038162,-0.009905,-0.061918,0.201234,0.203075,110,c
24:24.2,70.709923,-40.755726,128.038162,0.011095,-0.068548,0.170464,0.201274,110,c
24:24.4,124.702293,-24.137405,11.862596,0.040268,-0.036534,0.132523,0.200663,110,c
24:24.6,62.389313,-38.290077,-88.290077,0.008985,0.002327,0.102295,0.197724,110,c
24:25.8,53.206108,-14.526717,-14.442748,0.020134,0.031663,0.163536,1.125667,111,c
24:26.0,-16.740458,-65.824425,-101.900764,0.019133,0.020513,0.034721,0.198546,111,c
24:26.2,-118.122139,-50.068703,-30.732824,-0.047656,-0.002111,0.103431,0.202619,111,c
24:26.4,-98.740456,-4.396946,116.71756,-0.001191,-0.04698,0.164213,0.201217,111,c
24:26.6,25.923664,-2.709924,151.656494,0.019404,-0.079833,0.189813,0.200956,111,c
24:26.8,136.427475,-32.778625,66.229004,0.072229,-0.041243,0.159774,0.20078,111,c
24:27.0,103.404579,-40.526718,-58.030533,0.046006,0.000812,0.088412,0.200175,111,c
24:27.2,15.145039,-80.740456,-157.648849,-0.007659,-0.001055,0.078913,0.201509,111,c
24:28.0,36.007633,-32.610687,15.106871,0.078453,0.048089,0.116746,0.819237,112,c
24:28.2,-2.061069,-29.717558,-129.725189,0.056316,0.028523,0.079968,0.200889,112,c
24:28.4,-87.007637,-102.984734,-96.007637,-0.032312,-0.000162,0.082296,0.203209,112,c
24:28.6,-172.374039,-16.007633,93.114502,-0.054151,-0.044761,0.146514,0.200745,112,c
24:28.8,-17.839695,-56.633587,171.870224,-0.025763,-0.083216,0.174794,0.19917,112,c
24:29.0,79.969467,-36.076336,156.007629,0.027224,-0.087113,0.190409,0.202067,112,c
24:29.2,133.381683,-25.045801,9.251908,0.059049,-0.033692,0.118451,0.200397,112,c
24:29.4,42.946564,-79.992363,-119.709923,0.0128,0.008064,0.064354,0.202062,112,c
24:30.6,63.664124,-21.977098,-9.938931,0.047521,0.044274,0.163211,1.22209,113,c
24:30.8,4.687023,-141.251907,-125.862595,0.014126,0.027279,0.061891,0.201227,113,c
24:31.0,-136.496185,-94.213737,-29.435114,-0.006116,-0.009824,0.082431,0.201467,113,c
24:31.2,-113.786263,44.770992,185.832062,-0.014072,-0.061566,0.178312,0.199768,113,c
24:31.4,24.290077,3.129771,185.664124,0.011934,-0.086517,0.198203,0.201195,113,c
24:31.6,141.305344,12.610687,63.061069,0.075449,-0.069062,0.166946,0.201216,113,c
24:31.8,112.816795,-36.809162,-61.076336,0.041757,-0.016535,0.096666,0.198521,113,c
24:32.0,41.786259,-104.770996,-146.862595,0.001001,0.005494,0.057074,0.201373,113,c
24:32.9,3.21374,-17.473282,-10.801527,0.053745,0.037183,0.141805,0.921521,114,c
24:33.1,22.557251,-115.625954,-129.351151,0.020269,0.016102,0.037995,0.20346,114,c
24:33.3,-89.488548,-136.908401,-121.236641,-0.073284,-0.032529,0.072445,0.198869,114,c
24:33.5,-226.229004,10.091603,142.877869,-0.019972,-0.134661,0.213628,0.200261,114,c
24:33.7,-9.519084,-43.106869,236.885498,-0.034964,-0.136474,0.202154,0.203078,114,c
24:33.9,141.28244,-75.03817,123.946564,0.049442,-0.072337,0.145919,0.200456,114,c
24:34.1,136.679382,-48.916031,-79.732826,0.038861,-0.015182,0.092552,0.200336,114,c
24:35.0,-2.358779,49.229008,12.473283,-0.006549,0.043353,0.152792,0.821963,115,c
24:35.2,36.099236,-62.725189,-64.152672,0.010527,0.026196,0.116394,0.201951,115,c
24:35.4,-24.908398,-51.572517,-72.564888,-0.015507,0.000677,0.057561,0.200201,115,c
24:35.6,-161.175568,17.717558,-14.19084,-0.084461,-0.042704,0.14489,0.200791,115,c
24:35.8,-57.083969,48.755726,123.709923,-0.014505,-0.059753,0.221692,0.19858,115,c
24:36.0,51.083969,4.755725,152.534348,0.028036,-0.059239,0.199826,0.202336,115,c
24:36.2,107.702293,-8.419847,5.48855,0.057182,-0.031338,0.144078,0.20049,115,c
24:36.4,77.458015,-57.236641,-114.129768,0.007415,-0.016318,0.108871,0.201254,115,c
24:36.6,-17.32061,-19.083969,4.992366,-0.073555,0.022543,0.084867,0.200868,115,c
24:37.1,50.503819,-8.877863,38.045803,-0.016914,0.039456,0.145161,0.520479,116,c
24:37.3,23.396946,-37.473282,-88.435112,0.02441,0.031257,0.102944,0.202103,116,c
24:37.5,-21.641222,-83.328247,-77.839691,-0.0128,0.008037,0.063055,0.200004,116,c
24:37.7,-127.648857,-74.167938,17.389313,-0.061458,-0.01805,0.118992,0.199005,116,c
24:37.9,-82.251907,30.458015,152.748093,-0.029687,-0.063785,0.221692,0.202562,116,c
24:38.1,50.824429,-52.167938,175.664124,-0.003518,-0.071227,0.175389,0.200349,116,c
24:38.3,124.770996,13.503817,36.312977,0.072797,-0.038482,0.16838,0.201528,116,c
24:38.5,98.007637,-58.755726,-92.381676,0.011177,-0.024437,0.075341,0.200246,116,c
24:39.1,20.923664,-0.122137,36.595421,-0.02552,0.033909,0.136014,0.619804,117,c
24:39.3,23.022902,-65.854965,-92.625954,0.027684,0.02828,0.110197,0.202766,117,c
24:39.5,-48.29771,-108.824425,-79.297707,-0.018592,0.013531,0.052149,0.200965,117,c
24:39.7,-152.740463,-62.190838,18.847328,-0.015101,-0.025736,0.13052,0.200893,117,c
24:39.9,6.183206,26.938931,142.847336,-0.003491,-0.061404,0.221692,0.199968,117,c
24:40.1,99.198471,22.412214,147.28244,0.050011,-0.060673,0.163726,0.199788,117,c
24:40.3,126.732826,-30.374046,-12.114504,0.04652,-0.019214,0.116448,0.201831,117,c
24:40.5,47.770992,-46.793892,-97.656487,0.014884,0.002571,0.092985,0.201307,117,c
24:45.8,16.770992,48.992367,13.679389,-0.034504,0.030282,0.154173,5.233901,118,c
24:46.0,48.366413,-79.656487,-63.167938,0.015588,0.01916,0.10906,0.201455,118,c
24:46.2,-26.160305,-72.473282,-105.32061,-0.05066,-0.003004,0.042758,0.203351,118,c
24:46.4,-122.977097,-51.335876,27.740458,-0.107815,-0.023057,0.088141,0.200501,118,c
24:46.6,-126.954201,16.824427,203.221375,-0.065138,-0.102971,0.221692,0.200912,118,c
24:46.8,143.954193,-13.519084,27.603054,0.046168,-0.067249,0.215631,0.199805,118,c
24:47.0,142.404587,-57.450382,-94.328247,0.021541,-0.01916,0.076775,0.201621,118,c
24:47.7,20.206106,-55.862595,8.740458,0.030228,0.04246,0.169057,0.721575,119,c
24:47.9,54.206108,-88.824425,-59.175571,-0.011961,0.040701,0.124946,0.199297,119,c
24:48.1,-120.633591,-8.526717,-133.702286,-0.075693,-0.02441,0.041161,0.201678,119,c
24:48.3,-217.343506,-75.137405,95.114502,-0.129411,-0.075882,0.140669,0.200033,119,c
24:48.5,4.29771,-67.870232,140.92366,-0.024897,-0.076423,0.194279,0.201669,119,c
24:48.7,96.160309,-13.21374,52.190838,0.042812,-0.05886,0.156392,0.200257,119,c
24:48.9,121.099236,-47.908398,-111.251907,0.059212,-0.043164,0.096882,0.199971,119,c
24:49.1,25.923664,13.740458,-46.885498,-0.103377,0.026683,0.067006,0.202146,119,c
24:49.7,84.938934,-19.137405,-14.824428,0.007361,0.033936,0.152928,0.620887,120,c
24:49.9,23.29771,-52.221375,-108.732826,-0.014018,0.029849,0.038861,0.200611,120,c
24:50.1,-154.274811,-16.748091,-15.961832,-0.127841,-0.017807,0.080483,0.201677,120,c
24:50.3,-150.824432,-75,150.389313,-0.07001,-0.072797,0.144457,0.200443,120,c
24:50.5,3.977099,-55.61832,166.412216,-0.001164,-0.086166,0.197824,0.201042,120,c
24:50.7,128.366409,-69.595421,-0.885496,0.022705,-0.044679,0.163807,0.200087,120,c
24:50.9,66.923668,-43.870228,-114.862595,-0.009147,0.004086,0.064218,0.199321,120,c
24:51.6,32.007633,11.396947,8.664123,-0.020567,0.039078,0.154741,0.723462,121,c
24:51.8,73.03817,-31.358778,-97.496185,-0.010148,0.031338,0.08419,0.201186,121,c
24:52.0,-54.465649,-29.213741,-78.732826,-0.045356,0.021054,0.060213,0.201437,121,c
24:52.3,-134.885498,-34.9771,-24.221375,-0.053042,-0.020648,0.104784,0.200737,121,c
24:52.5,-131.496185,-53.145039,130.839691,-0.108952,-0.074745,0.178556,0.200458,121,c
24:52.7,3.465649,-22.526718,167.557251,-0.025195,-0.076965,0.179773,0.198875,121,c
24:52.9,99.572517,-26.389313,7.175572,-0.002219,-0.036398,0.163455,0.202486,121,c
24:53.1,82.259544,-54.709923,-70.045799,0.011988,-0.012449,0.086139,0.200288,121,c
24:53.3,-13.580153,-18.824427,-50.610687,-0.103485,0.024762,0.085029,0.20104,121,c
24:53.9,23.206106,6.496183,-5.824428,-0.016914,0.032096,0.157258,0.621017,122,c
24:54.1,86.587784,-80.274811,-83.916031,0.014235,0.014722,0.057182,0.200644,122,c
24:54.3,-101.877861,-16.526718,-142.259537,-0.072662,-0.020324,0.097694,0.201354,122,c
24:54.5,-110.793892,-27.732824,19.557251,-0.123105,-0.047277,0.125757,0.201382,122,c
24:54.7,-49.801525,-38.145039,204.28244,-0.026223,-0.06752,0.160478,0.197513,122,c
24:54.9,37.809162,5.29771,149.030533,0.001543,-0.078101,0.189137,0.203642,122,c
24:55.1,114.198471,-84.725189,-51.854961,-0.015128,-0.022786,0.127029,0.20089,122,c
24:55.3,68.061066,18.916031,-46.396946,-0.071281,0.020702,0.048712,0.200941,122,c
24:55.8,-9.366412,62.274811,-1.366412,-0.031203,0.047088,0.140019,0.518644,123,c
24:56.0,111.053436,-36.847328,-95.39695,-0.000108,0.027387,0.099561,0.202091,123,c
24:56.2,-71.145035,-78.076332,-132.7939,-0.029362,-0.000649,0.025871,0.202405,123,c
24:56.4,-134.251907,-37.221375,-5.732824,-0.138017,-0.053881,0.119858,0.199854,123,c
24:56.6,-135.778625,-97.725189,164.908401,-0.104838,-0.075097,0.166296,0.200127,123,c
24:56.8,18.656488,43.923664,189.137405,-0.025465,-0.098831,0.169598,0.19993,123,c
24:57.0,113.274811,-39.793892,-7.351145,0.023382,-0.044517,0.165539,0.200718,123,c
24:57.2,90.511452,-63.114502,-84.427483,-0.03077,-0.010121,0.072905,0.202677,123,c
24:57.8,17.450382,-7.694656,14.496183,-0.00893,0.033936,0.164808,0.62046,124,c
24:58.0,120.328247,-90.435112,-136.328247,-0.028956,0.010798,0.068548,0.199545,124,c
24:58.2,-123.175575,-41.34351,-106.39695,-0.063921,-0.006576,0.053962,0.202786,124,c
24:58.4,-150.885498,-35.190838,16.030535,-0.148814,-0.066302,0.15328,0.199943,124,c
24:58.6,-29.435114,-66.496185,159.28244,-0.071769,-0.077181,0.153117,0.200786,124,c
24:58.8,38.687023,-17.549618,124.977097,-0.001353,-0.065193,0.156933,0.201715,124,c
24:59.0,118.28244,-34.274811,-49.587788,0.002652,-0.032014,0.122943,0.198502,124,c
24:59.2,97.152672,17.450382,-100.030533,-0.047304,0.005494,0.050308,0.200224,124,c
24:59.9,47.732826,-31.167938,7.832061,0.021704,0.032745,0.160938,0.623026,125,c
25:00.1,54.832062,-43.511452,-85.625954,-0.02073,0.021271,0.068223,0.199371,125,c
25:00.3,-74.839691,-35.0229,-87.030533,-0.082729,-0.008876,0.048631,0.20328,125,c
25:00.5,-130.175568,-4.900764,27.465649,-0.134931,-0.048008,0.136691,0.200358,125,c
25:00.7,-65.335876,-60.70229,125.755722,-0.064381,-0.069685,0.164186,0.201557,125,c
25:00.9,37.312977,-31.664122,133.595413,-0.018808,-0.06227,0.190679,0.200365,125,c
25:01.1,127.274811,-5.709924,-12.480916,0.005656,-0.030012,0.132956,0.200352,125,c
25:01.3,64.877861,-30.229008,-99.198471,-0.014992,0.00847,0.051689,0.198664,125,c
25:01.9,25.67939,-40.32061,7.358778,-0.02809,0.038103,0.155228,0.621393,126,c
25:02.1,58.916031,-37.129772,-81.450378,-0.002111,0.025628,0.101104,0.202647,126,c
25:02.3,-41.267174,-6.458015,-107.755722,-0.061837,0.00755,0.071281,0.201489,126,c
25:02.5,-115.435112,-27.740458,18.541985,-0.123051,-0.028063,0.104757,0.200087,126,c
25:02.7,-112.732826,-25.374046,118.702293,-0.052798,-0.06779,0.158854,0.20102,126,c
25:02.9,13.893129,2.40458,146.908401,-0.030039,-0.082458,0.221692,0.201251,126,c
25:03.1,123.618324,12.511451,11.297709,0.014289,-0.042677,0.143456,0.197836,126,c
25:03.3,72.053436,2.167939,-72.114502,-0.040837,0.003599,0.090117,0.204035,126,c
25:03.9,-4.450382,-31.282442,5.221374,-0.036507,0.040458,0.14646,0.620787,127,c
25:04.1,106.64122,-49.519085,-93.656487,-0.000514,0.016102,0.093743,0.201324,127,c
25:04.3,-63.190838,-41.465649,-89.67939,-0.071281,0.002787,0.040431,0.200646,127,c
25:04.5,-134.778625,-34.229008,5.633588,-0.121779,-0.045573,0.115311,0.200898,127,c
25:04.7,-121.007637,-34.29771,124.343513,-0.081457,-0.066924,0.150898,0.197924,127,c
25:04.9,30.938931,-39.160305,109.435112,-0.019106,-0.046628,0.183021,0.20252,127,c
25:05.1,123.274811,-43.496181,-20.458015,0.007117,-0.038672,0.145215,0.201666,127,c
25:05.3,71.977097,-24.290077,-46.969467,-0.036588,0.009986,0.061323,0.200306,127,c
25:06.0,46.824429,4.625954,-20.893129,-0.019052,0.036967,0.144133,0.720403,128,c
25:06.2,54.519085,-46.099236,-89.503815,-0.010662,0.022191,0.088953,0.200135,128,c
25:06.4,-31.480917,-28.572519,-114.244278,-0.060024,0.007334,0.070524,0.203183,128,c
25:06.6,-104.206108,-32.458015,28,-0.133903,-0.023273,0.09036,0.199692,128,c
25:06.8,-125.007637,-40.893131,105.465652,-0.088845,-0.050552,0.152387,0.201029,128,c
25:07.0,4.977099,-34.847328,146.381683,-0.029714,-0.048468,0.191627,0.20005,128,c
25:07.2,176.160309,-6.610687,-4.51145,0.007199,-0.036913,0.151466,0.199746,128,c
25:07.4,23.12977,-57.091602,-77.511452,-0.021298,0.021271,0.037752,0.201942,128,c
25:08.1,27.595419,-13.198473,13.244275,-0.026981,0.053502,0.158313,0.622245,129,c
25:08.3,52.793892,-67.335876,-104.67939,-0.016156,0.02763,0.09856,0.198979,129,c
25:08.5,-80.351143,-54.0229,-114.572517,-0.086057,0.00682,0.065003,0.202956,129,c
25:08.7,-147.320618,-31.076336,31.770992,-0.106165,-0.055125,0.118478,0.20001,129,c
25:08.9,-38.198475,-48.694656,151.763351,-0.061783,-0.075016,0.131413,0.201763,129,c
25:09.1,18.458015,28.732824,158.648849,-0.020567,-0.063948,0.175037,0.200379,129,c
25:09.3,99.114502,-50.541985,-2.305344,-0.028496,-0.024085,0.168894,0.198589,129,c
25:09.5,132.801529,-111.053436,-110.755722,-0.015858,-0.017293,0.071823,0.203292,129,c
25:10.1,65.152672,37.709923,-35.061069,0.027901,0.032366,0.162345,0.620645,130,c
25:10.3,22.770992,-49.190838,-49.65649,0.004411,0.023328,0.077452,0.199599,130,c
25:10.5,-91.801529,-14.564885,-51.793892,-0.073419,-0.002625,0.054368,0.202391,130,c
25:10.7,-121.854965,-18.358778,45.65649,-0.081457,-0.035127,0.185646,0.199899,130,c
25:10.9,-19.351145,-26.19084,118.931297,-0.030255,-0.042082,0.162454,0.19936,130,c
25:11.1,16.709923,-49.824429,101.900764,0.021135,-0.042136,0.186945,0.20335,130,c
25:11.3,105.290077,20.160305,-14.641221,0.045167,-0.026304,0.153415,0.200106,130,c
25:11.5,68.145035,7.053435,-75.908394,0.003924,0.005304,0.058589,0.19877,130,c
25:12.2,82.190842,36.557251,-3.763359,0.017563,0.042,0.161479,0.723962,131,c
25:12.4,37.190838,-46.603054,-65.625954,-0.017861,0.03602,0.061783,0.199554,131,c
25:12.6,-72.503815,-18.740458,-79.893127,-0.066248,-0.000568,0.052013,0.203203,131,c
25:12.8,-142.740463,-41.045803,47.274811,-0.115311,-0.038076,0.166134,0.200172,131,c
25:13.0,-26.946566,-58.083969,140.2061,-0.006305,-0.047007,0.198906,0.200481,131,c
25:13.2,99.236641,50.122139,75.541985,0.042569,-0.036831,0.186809,0.197858,131,c
25:13.4,110.854965,-9.923664,-38.404579,0.025303,-0.013044,0.100454,0.202897,131,c
25:13.6,-7.885496,-11.335877,-73.740456,-0.077776,0.025005,0.05315,0.199848,131,c
25:14.4,47.778625,-38.145039,22.572519,-0.037887,0.041188,0.154984,0.822188,132,c
25:14.6,17.099237,-58.427483,-90.954201,0.026142,0.022516,0.078615,0.200363,132,c
25:14.8,-94.671753,-26.389313,-66.908394,-0.067412,-0.006901,0.050281,0.202037,132,c
25:15.0,-144.778625,-47.648853,79.832062,-0.119181,-0.057507,0.161831,0.201588,132,c
25:15.2,-4.099236,-51.526718,155.885498,-0.021217,-0.071309,0.207837,0.199996,132,c
25:15.4,74.763359,10.610687,83.748093,0.026846,-0.04265,0.179286,0.199752,132,c
25:15.6,112.160309,-1.312977,-53.274811,0.01529,-0.014965,0.095394,0.201854,132,c
25:15.8,46.847328,-7.870229,-74.778625,-0.084325,0.010662,0.088818,0.198834,132,c
25:16.1,-2.725191,-11.091603,-30.038168,-0.068305,0.032014,0.097505,0.202984,132,c
25:33.0,23.038168,-27.412214,-12.305344,0.02874,0.043408,0.122293,16.974803,133,c
25:33.2,-25.51145,-30.961832,-70.39695,-0.008389,0.023869,0.064029,0.201708,133,c
25:33.4,-69.343513,-17.48855,-39.442749,-0.026791,0.004817,0.117287,0.199473,133,c
25:33.6,-113.633591,70.366409,-33.885498,-0.050444,-0.036615,0.150276,0.20023,133,c
25:33.8,-23.595419,-1.931298,91.076332,-0.050417,-0.02211,0.202966,0.201679,133,c
25:34.0,40.0229,-7.198473,80.39695,0.005142,-0.023625,0.144295,0.200414,133,c
25:34.2,69.503815,-30.549618,37.335876,0.026007,-0.007523,0.152765,0.201558,133,c
25:34.4,50.145039,-11.290076,-50.725189,0.027062,0.001299,0.092688,0.200874,133,c
25:34.6,0.40458,-14.206107,-38.938931,-0.02284,0.012476,0.078778,0.198757,133,c
25:35.4,1.48855,-24.832062,-18.32061,-0.018321,0.049497,0.092877,0.723938,134,c
25:35.6,10.305344,-30.015266,-15.389313,-0.002463,0.03786,0.126434,0.19892,134,c
25:35.8,-11.832061,-23.656488,-40.847328,-0.01299,0.029471,0.103783,0.200389,134,c
25:36.0,-28.152672,-23.70229,-30.900763,-0.040837,0.016373,0.088655,0.202654,134,c
25:36.2,-70.885498,-6.129771,-21.076336,-0.046844,-0.002192,0.099967,0.200914,134,c
25:36.4,-82.160309,40.778625,4.70229,-0.050931,-0.029173,0.165349,0.20036,134,c
25:36.6,-2.366412,-26.152672,93.824425,-0.025925,-0.023409,0.167839,0.201304,134,c
25:36.8,63.488548,-21.954199,51.740459,0.04035,-0.016237,0.150655,0.199983,134,c
25:37.0,72.496185,-28.465649,-2.267176,0.033422,-0.008714,0.117098,0.20042,134,c
25:37.2,33.709923,-29.587786,-44.786259,0.014289,0.011231,0.08032,0.201009,134,c
25:38.4,-14.236641,-30.793894,-16.587786,-0.010987,0.033719,0.099561,1.22377,135,c
25:38.6,-19.198473,-32.015266,-50.687023,-0.033719,0.015371,0.080456,0.200614,135,c
25:38.8,-45.236641,-12.183207,-39.526718,-0.047629,-0.002273,0.106868,0.199654,135,c
25:39.0,-59.893131,4.427481,3.717557,-0.005358,-0.010338,0.152197,0.201842,135,c
25:39.2,-29.908398,-7,56.465649,-0.050958,-0.009174,0.175795,0.201466,135,c
25:39.4,28.038168,47.259541,53.366413,0.001921,-0.013179,0.168001,0.20032,135,c
25:39.6,71.305344,-18.015266,16.145039,0.036074,-0.007009,0.142698,0.200158,135,c
25:39.8,52.496181,0.167939,-51.893131,0.018267,0.001407,0.102728,0.201808,135,c
25:40.0,21.770992,1.389313,-44.473282,-0.057994,0.016102,0.068656,0.200609,135,c
25:40.9,24.427481,-19.213741,13.297709,-0.003004,0.032204,0.133091,0.921023,136,c
25:41.1,-4.961832,-30.465649,-29.801527,-0.002544,0.027712,0.08143,0.200905,136,c
25:41.3,-55.687023,9.587787,-48.389313,-0.044788,0.010744,0.111848,0.199364,136,c
25:41.5,-62.832062,11.755725,-14.694656,-0.023679,-0.007388,0.112795,0.203449,136,c
25:41.7,-59.442749,1.259542,33.183205,-0.04495,-0.023869,0.167758,0.200381,136,c
25:41.9,-14.656488,12.656488,72.503815,-0.017942,-0.015777,0.194982,0.198387,136,c
25:42.1,62.267174,-9.801527,44.908398,0.020675,-0.012719,0.145973,0.201787,136,c
25:42.3,67.244278,-37.847328,-15.900764,0.033368,0.001867,0.145594,0.20195,136,c
25:42.5,44.221375,0.458015,-44.312977,-0.035505,0.008958,0.072689,0.200814,136,c
25:43.9,12.335877,3.78626,-24.656488,0.013017,0.039538,0.147867,1.423331,137,c
25:44.1,-15.725191,-17.923664,-24.389313,-0.006333,0.009391,0.080456,0.20229,137,c
25:44.3,-81.96183,2.366412,-36.625954,-0.036534,-0.01253,0.114067,0.199785,137,c
25:44.5,-69.938934,-18.175573,22.755726,-0.039456,-0.019268,0.138883,0.201647,137,c
25:44.7,-5.832061,-26.435114,79.221375,-0.015452,-0.018402,0.184509,0.197804,137,c
25:44.9,73.190842,5.51145,41.954197,0.013287,-0.019268,0.174767,0.202586,137,c
25:45.1,66.900764,-16.961832,-4.763359,0.026846,-0.004952,0.125785,0.20092,137,c
25:45.3,61.938931,-0.343511,-55.229008,-0.010284,0.000893,0.071444,0.201229,137,c
25:46.4,8.091603,-10.694656,-21.786259,0.012205,0.040512,0.109791,1.02265,138,c
25:46.6,-34.923664,-79.778625,-30.969465,-0.060105,0.009851,0.09331,0.201604,138,c
25:46.8,-57.687023,-8.366412,-19.251909,-0.04928,-0.008497,0.095367,0.200617,138,c
25:47.0,-64.030533,-10.671756,23.641222,-0.049469,-0.003329,0.209082,0.20039,138,c
25:47.2,8.076336,8.923664,62.198475,-0.020648,-0.013829,0.154687,0.200451,138,c
25:47.4,52.877861,-16.442749,23.450382,0.023706,-0.0082,0.156175,0.198733,138,c
25:47.6,63.938931,-29.824427,-12.251908,0.01483,-0.001624,0.113498,0.204118,138,c
25:47.8,39.137405,4.984733,-41.129772,-0.014478,0.015155,0.104324,0.198601,138,c
25:48.9,1.671756,-30.656488,-42.35878,-0.003653,0.03924,0.116665,1.121695,139,c
25:49.1,-32.954197,15.19084,-33.557251,-0.028145,0.02073,0.082296,0.202498,139,c
25:49.3,-72.709923,47.335876,-37.251907,-0.042217,0.009363,0.111929,0.201051,139,c
25:49.5,-69.732826,-3.076336,14.923664,-0.063812,-0.0128,0.154308,0.200841,139,c
25:49.7,-42.030533,-17.549618,57.893131,-0.034585,-0.022353,0.206808,0.201628,139,c
25:49.9,79.129768,-0.045802,68.167938,0.010554,-0.023111,0.162616,0.199651,139,c
25:50.1,63.732826,-20.229008,-19.114504,0.020513,-0.005385,0.101889,0.199786,139,c
25:51.1,15.778625,-37.511452,-26.969465,0.022624,0.039051,0.11588,1.022858,140,c
25:51.3,-16.977098,-11.480916,-38.412212,-0.01594,0.020053,0.091037,0.202822,140,c
25:51.5,-41.824429,-34.778625,-4.412214,0.000947,0.001082,0.098127,0.200818,140,c
25:51.7,-61.236641,10.396947,22.496183,-0.037589,-0.014045,0.143618,0.200634,140,c
25:51.9,-37.809162,17.29771,47.404579,-0.04587,-0.019295,0.172061,0.200685,140,c
25:52.1,44.564884,-18.328245,79.106873,0.011339,-0.018754,0.179476,0.198414,140,c
25:52.3,62.190838,-26.343512,22.847328,0.016291,-0.010013,0.139938,0.200979,140,c
25:52.5,52.625954,-16.343512,-31.923664,0.0082,-0.000352,0.07599,0.202783,140,c
25:52.7,-8.442748,-15.160305,-27.396946,-0.050471,0.013098,0.102484,0.202715,140,c
25:53.9,1.48855,-22.083969,-51.435116,0.000947,0.027306,0.103269,1.12086,141,c
25:54.1,-22.977098,-34.045803,-47.007633,-0.027441,0.004682,0.06955,0.198753,141,c
25:54.3,-62.442749,3.816794,-1.916031,-0.056073,-0.008389,0.145675,0.201678,141,c
25:54.5,-55.839695,22.564886,17.977098,-0.060159,-0.017942,0.148435,0.201512,141,c
25:54.7,-21.183207,12.648855,51.938931,-0.030499,-0.021677,0.166594,0.200133,141,c
25:54.9,80.244278,-26.396946,68.236641,-0.020161,-0.019674,0.16811,0.199611,141,c
25:55.1,68.427483,-11.725191,-11.610687,0.012557,-0.006251,0.10722,0.202785,141,c
25:55.3,0.709924,16.923664,-47.717556,-0.019079,0.012151,0.087032,0.199566,141,c
25:56.6,21.29771,13.709924,-45.541985,0.006062,0.028659,0.101753,1.322372,142,c
25:56.8,-21.687023,-16.145039,-38.519085,-0.028686,0.014451,0.100021,0.200923,142,c
25:57.0,-73.328247,-35.274811,-4.030534,-0.038834,-0.002733,0.113796,0.202746,142,c
25:57.2,-56.648853,17.374046,11.106871,-0.047602,-0.015344,0.152468,0.199946,142,c
25:57.4,-22.328245,10.167939,58.221375,-0.050985,-0.017157,0.189299,0.199375,142,c
25:57.6,49.190838,9.648855,74.732826,0.02054,-0.022489,0.10952,0.20242,142,c
25:57.8,64.496185,-30.29771,-3.687023,-0.001299,0.000541,0.138883,0.19945,142,c
25:58.0,-4.564886,-30.053434,-51.29771,-0.020594,0.00203,0.057155,0.201886,142,c
25:59.2,37.603054,-33.29771,-23.854961,0.009905,0.025628,0.085597,1.223361,143,c
25:59.4,-22.541985,-41.580154,-43.458015,-0.031013,0.021866,0.080753,0.200784,143,c
25:59.6,-47.0229,-45.900764,-22.091602,-0.04606,0.008173,0.108573,0.201382,143,c
25:59.8,-59.312977,15.374045,7.885496,-0.033773,-0.010635,0.124946,0.199557,143,c
26:00.0,-22.167938,3.389313,70.053436,-0.039213,-0.016264,0.170085,0.199033,143,c
26:00.2,30.312977,-17.938931,59.61832,-0.019214,-0.013748,0.16064,0.203027,143,c
26:00.4,60.396946,2.992366,-1.450382,0.003302,-0.005575,0.125676,0.200773,143,c
26:00.6,36.236641,4.656488,-56.290077,-0.007956,0.00893,0.085137,0.20014,143,c
26:01.7,4.08397,3.633588,-30.343512,0.004303,0.036913,0.107951,1.123138,144,c
26:01.9,1.030534,-30.389313,-45.259541,-0.006495,0.022624,0.099561,0.201451,144,c
26:02.1,-73.061066,5.946565,-20.595419,-0.054259,0.004411,0.115744,0.19839,144,c
26:02.3,-65.343513,7.664122,26.267176,-0.044761,-0.005656,0.139451,0.203184,144,c
26:02.5,-7.587786,-16.938931,69.427483,-0.031176,-0.016156,0.180098,0.20079,144,c
26:02.7,68.030533,9.526717,34.404579,0.002544,-0.009363,0.150546,0.200131,144,c
26:02.9,54.931297,-2.061069,-5.80916,0.015777,0.009986,0.128112,0.199729,144,c
26:03.1,16.748091,-23.938931,-36.748093,-0.013125,0.019268,0.072743,0.202504,144,c
26:04.5,55.419846,15.068703,-23.938931,0.014505,0.040106,0.164537,1.322919,145,c
26:04.7,15.916031,-15.679389,-44.229008,-0.002517,0.034775,0.094041,0.200102,145,c
26:04.9,-27.175573,-9.076336,-44.832062,-0.031717,0.017563,0.083622,0.200113,145,c
26:05.1,-69.648857,29.015266,-23.145039,-0.065815,0.003464,0.128058,0.202033,145,c
26:05.3,-60.946564,-1.206107,29.80916,-0.080997,-0.011231,0.140182,0.200497,145,c
26:05.5,-0.48855,6.236641,73.236641,-0.013206,-0.011014,0.198446,0.201476,145,c
26:05.7,52.717556,-2.175573,5.526718,0.006116,-0.004952,0.120047,0.200612,145,c
26:05.9,34.923664,7.549618,-19.854961,-0.032014,0.007496,0.133037,0.199043,145,c
26:06.1,23.175573,29.251909,-26.229008,-0.040079,0.008037,0.104757,0.201723,145,c
26:07.2,-2.694656,-26.396946,9.374045,-0.013206,0.029416,0.108086,1.123588,146,c
26:07.4,17.992367,-21.51145,-44.007633,-0.022543,0.017455,0.097694,0.200454,146,c
26:07.6,-30.778625,-20.70229,-29.480917,-0.055829,0.014478,0.106408,0.201291,146,c
26:07.8,-52.244274,14.351145,-6.152672,-0.064841,0.001218,0.122591,0.198772,146,c
26:08.0,-57.519085,10.320611,24.80916,-0.068711,-0.012286,0.127544,0.201766,146,c
26:08.2,7.480916,6.862596,59.923664,-0.040647,-0.010013,0.185105,0.200274,146,c
26:08.4,59.419846,-13.236641,21.885496,0.009878,-0.002111,0.144674,0.201187,146,c
26:08.6,50.145039,-3.167939,-32.152672,-0.014559,0.006008,0.083649,0.199265,146,c
26:09.7,20.748091,-24.648855,-21.603054,-0.005602,0.026764,0.097532,1.122825,147,c
26:09.9,6.419847,-15.59542,-47.992367,-0.020324,0.016535,0.094365,0.203181,147,c
26:10.1,-40.946564,-26.961832,-56.389313,-0.050119,-0.000406,0.10703,0.201019,147,c
26:10.3,-40.091602,-17.900763,25.625954,-0.063948,-0.021677,0.132794,0.199743,147,c
26:10.5,-47.832062,36.954197,46.396946,-0.033828,-0.028848,0.16792,0.198771,147,c
26:10.7,38.404579,-0.343511,79.580154,0.001948,-0.029362,0.161317,0.203504,147,c
26:10.9,80.259544,-11.61832,18.824427,0.030337,-0.016048,0.150249,0.200144,147,c
26:11.1,52.328243,-15.519084,-41.32061,-0.016102,0.006116,0.097018,0.200851,147,c
26:11.3,19.19084,-19.145039,-40.267174,-0.041216,0.011745,0.090983,0.20091,147,c
26:12.3,25.564886,-34.763359,-0.099237,0.01142,0.03878,0.139478,0.922202,148,c
26:12.5,-8.137404,-18.526718,-61.541985,-0.012584,0.018754,0.075747,0.200317,148,c
26:12.7,-41.38168,-15.763359,-28.389313,-0.051661,0.004519,0.102592,0.201691,148,c
26:12.9,-66.274811,-24.51145,18.80916,-0.068548,-0.010771,0.124107,0.200421,148,c
26:13.1,-49.480915,4.984733,69.656487,-0.048658,-0.039429,0.185808,0.200211,148,c
26:13.3,23.908398,-2.374046,63.786259,0.019458,-0.020838,0.152035,0.200367,148,c
26:13.5,47.435116,-40.839695,24.709923,0.012827,-0.007523,0.127977,0.200909,148,c
26:13.7,32.61832,-16.473282,-41.442749,0.002571,0.011366,0.09488,0.199014,148,c
26:13.9,34.213741,-34.931297,-23.229008,-0.018646,0.023571,0.128437,0.202707,148,c
26:15.4,47.465649,24.786259,-11.992367,0.022029,0.024166,0.121238,1.523979,149,c
26:15.6,-12.038168,-19.931297,-46.854961,-0.012557,0.011664,0.082891,0.201292,149,c
26:15.8,-57.816795,-9.480916,-23.328245,-0.045978,-0.012827,0.117422,0.19832,149,c
26:16.0,-58.427483,30.709923,16.48855,-0.049794,-0.031527,0.134228,0.201628,149,c
26:16.2,-6.992366,-35.580154,61.328243,-0.048035,-0.031581,0.21333,0.201778,149,c
26:16.4,80.03817,-19.519083,61.396946,0.004519,-0.024275,0.210814,0.201054,149,c
26:16.6,65.854965,-5.603054,-12.160305,0.024897,-0.003437,0.089088,0.201364,149,c
26:16.8,25.183207,25.931297,-56.061069,-0.00636,0.01529,0.099155,0.198895,149,c
26:17.9,18.938931,-9.152672,-34.916031,0.013396,0.025465,0.136663,1.124374,150,c
26:18.1,-36.549618,-60.778625,-52.717556,-0.028009,0.005683,0.096124,0.200966,150,c
26:18.3,-57.984734,-16.984734,-5.480916,-0.04311,-0.012449,0.126163,0.201326,150,c
26:18.5,-40.34351,10.954199,24.793894,-0.048522,-0.028632,0.174063,0.199955,150,c
26:18.7,10.305344,-18.145039,70.389313,-0.019268,-0.030553,0.177554,0.199569,150,c
26:18.9,52.091602,-29.801527,52.34351,0.010581,-0.016264,0.149599,0.202522,150,c
26:19.1,42.671757,-3.312977,-21.70229,0.019701,0.00203,0.102511,0.199989,150,c
26:19.3,13.541985,-12.801527,-40.954197,-0.054395,0.004384,0.072635,0.201775,150,c
26:20.3,-1.519084,-22.427481,-58.114502,0.019728,0.023544,0.090983,1.022317,151,c
26:20.5,-72.198471,-12.351145,-22.007633,-0.04292,0.007388,0.120616,0.201964,151,c
26:20.7,-54.251907,7.89313,20.748091,-0.049578,-0.015425,0.125622,0.198175,151,c
26:20.9,-40.29771,-0.053435,58.534351,-0.021596,-0.019674,0.180531,0.200882,151,c
26:21.1,56.328243,-0.641221,69.389313,0.013179,-0.022489,0.19712,0.202197,151,c
26:21.3,57.67939,-20.595419,15.221375,0.018971,-0.005521,0.133551,0.200558,151,c
26:21.5,33.282444,25.61832,-32.732826,0.016724,0.010202,0.126596,0.200592,151,c
26:22.7,15.145039,-35.29771,-54.610687,0.016075,0.02119,0.102268,1.123505,152,c
26:22.9,-27.687023,-15.832061,-50.244274,-0.015101,0.011664,0.111523,0.200077,152,c
26:23.1,-55.954197,-12.007633,-2.603053,-0.032393,-0.002057,0.133795,0.199945,152,c
26:23.3,-44.198475,-6.099236,33.984734,-0.029471,-0.012963,0.150167,0.203207,152,c
26:23.5,-22.572519,39.984734,62.458015,-0.014614,-0.023463,0.175389,0.199854,152,c
26:23.7,77.908394,-21.389313,27.51145,0.025655,-0.019999,0.156365,0.200851,152,c
26:23.9,71.213737,-28.389313,4.358778,0.011826,-0.001488,0.101726,0.19983,152,c
26:24.1,54.068703,-21.885496,-26.396946,-0.007253,0.01962,0.089088,0.201431,152,c
26:25.2,46.221375,8.740458,-83.39695,0.03196,0.02579,0.116448,1.122246,153,c
26:25.4,-35.351147,-6.954198,-51.687023,-0.024599,0.018077,0.095854,0.202153,153,c
26:25.6,-51.389313,-24.725191,-15.366412,-0.019133,0.007523,0.105975,0.200421,153,c
26:25.8,-54.580154,38.206108,22.519083,-0.018971,-0.021623,0.167893,0.199142,153,c
26:26.0,-36.946564,25.526718,20.549618,-0.012746,-0.009336,0.13845,0.201005,153,c
26:26.2,20.893129,-8.175572,64.633591,-0.012043,-0.016643,0.185456,0.202219,153,c
26:26.4,81.938934,-51.015266,24.335878,0.047386,-0.001326,0.126894,0.198553,153,c
26:26.6,49.137405,-28.251909,-31.847328,0.006711,0.007686,0.079157,0.202321,153,c
26:27.6,44.740459,-4.992366,-9.702291,0.061079,0.041649,0.095664,1.023378,154,c
26:27.8,-44.839695,-27.580153,-64.847328,-0.025195,0.017942,0.077046,0.200779,154,c
26:28.0,-61.351147,-15.923664,-21.51145,-0.032312,-0.007659,0.114094,0.200452,154,c
26:28.2,-66.96183,-4.91603,39.526718,-0.047304,-0.029687,0.167839,0.201218,154,c
26:28.4,23.938931,48.38168,79.748093,0.006008,-0.022895,0.190517,0.200601,154,c
26:28.6,90.519081,19.725191,36.030533,0.042893,-0.019972,0.176715,0.199816,154,c
26:28.8,63.877861,-28.687023,-18.51145,0.012367,0.014153,0.118775,0.198931,154,c
26:29.0,24.496183,6.824428,-43.931297,-0.005872,0.018808,0.07599,0.201008,154,c
26:30.2,55.877861,-15.633588,-57.122139,0.048008,0.036209,0.130277,1.124807,155,c
26:30.4,-86.969467,-6.473282,-38.847328,-0.025384,0.012124,0.044192,0.201674,155,c
26:30.6,-81.71756,3.694656,-29.48855,-0.065111,-0.010257,0.129357,0.19973,155,c
26:30.8,-69.709923,15.450381,55.816795,-0.031906,-0.009499,0.204508,0.202073,155,c
26:31.0,23.778625,-0.732824,55.541985,-0.019972,-0.009769,0.17501,0.19885,155,c
26:31.2,40.251907,19.229008,20.48855,0.014072,0.00111,0.13209,0.201524,155,c
26:31.4,53.251907,-35.282444,-22.755726,0.024924,0.011204,0.08852,0.200781,155,c
26:31.6,3.122137,-13.389313,-43.198475,-0.0269,0.01805,0.081836,0.200739,155,c
26:32.6,17.305344,-48.65649,-24.603054,-0.017969,0.034558,0.10013,1.024496,156,c
26:32.8,-26.091602,0.80916,-51.374046,-0.004546,0.021081,0.092688,0.199914,156,c
26:33.0,-53.007633,-12.893129,-18.984734,-0.046547,-0.002409,0.115826,0.198228,156,c
26:33.2,-63.473282,-15.832061,24.175573,-0.041703,-0.014695,0.131603,0.202864,156,c
26:33.4,-25.664122,-13.274809,65.198471,-0.016589,-0.019295,0.170491,0.201385,156,c
26:33.6,60.267174,20.541985,45.67939,-0.027766,-0.026088,0.139992,0.19948,156,c
26:33.8,71,-20.801527,15.610687,0.008606,0.000379,0.11588,0.199868,156,c
26:34.0,48.061069,-21.694656,-24.442749,-0.01667,0.009688,0.083514,0.201339,156,c
26:35.2,27.061069,-31.984734,-35.229008,0.004709,0.027008,0.156771,1.223737,157,c
26:35.4,-18.946566,-5.465649,-33.015266,-0.028875,0.015696,0.085679,0.201161,157,c
26:35.6,-54.274811,-25.114504,-23.137405,-0.050471,0.007794,0.107734,0.20063,157,c
26:35.8,-49.580154,-24.374046,25.900763,-0.041513,-0.010148,0.137232,0.201045,157,c
26:36.0,-33.526718,5.603054,53.35878,-0.040133,-0.016643,0.176553,0.198913,157,c
26:36.2,29.732824,23.427481,61.717556,-0.014532,-0.016941,0.142374,0.20246,157,c
26:36.4,67.145035,0.877863,-2.022901,0.018267,-0.003085,0.154416,0.2005,157,c
26:36.6,18.854961,10.175572,-45.152672,-0.01234,0.012313,0.101618,0.200856,157,c
26:36.8,1.549618,-8.816793,-37.839695,-0.040864,0.012719,0.107951,0.199639,157,c
26:37.8,19.114504,-25.114504,-1.412214,2.70E-05,0.024058,0.109385,1.023422,158,c
26:38.0,-1.10687,-33.458015,-40.809162,0.005196,0.017563,0.108113,0.201846,158,c
26:38.2,-45.786259,4.40458,-43.114502,-0.029119,0.006657,0.097856,0.200515,158,c
26:38.4,-68.793892,-1.664122,-1.755725,-0.056695,-0.018565,0.130033,0.200673,158,c
26:38.6,-15.122137,-2.89313,78.129768,-0.03261,-0.019674,0.18708,0.200929,158,c
26:38.8,32.832062,28.175573,75.740456,0.030688,-0.022949,0.158692,0.20139,158,c
26:39.0,60.954197,0.572519,14.732824,0.005845,-0.006224,0.138179,0.199585,158,c
26:39.2,37.412212,-16.221375,-20.206106,-0.004465,0.009851,0.104893,0.200754,158,c
26:39.4,1.229008,5.740458,-53.374046,-0.038185,0.020757,0.096179,0.201852,158,c
26:39.6,-0.816794,37.137405,-11.816793,-0.038509,0.026467,0.094122,0.199472,158,c
26:40.4,14.083969,-27.267176,18.12977,0.007713,0.02828,0.14351,0.722403,159,c
26:40.6,19.221375,14.229008,-21,0.007686,0.02533,0.120453,0.200633,159,c
26:40.8,8.732824,-8.419847,-42.694656,-0.007334,0.025844,0.098912,0.200665,159,c
26:41.0,-19.67939,-5.534351,-43.65649,-0.039646,0.005412,0.094501,0.201724,159,c
26:41.2,-91.053436,-24.87023,-4.290076,-0.065355,-0.014911,0.094663,0.198853,159,c
26:41.4,-52.671757,-9.343512,82.03817,-0.060863,-0.026386,0.2044,0.201689,159,c
26:41.6,24.839695,41.35878,52.374046,-0.016562,-0.023679,0.170816,0.201265,159,c
26:41.8,73.312981,3.068702,26.625954,0.016318,-0.012773,0.128464,0.199749,159,c
26:42.0,59.389313,-15.969465,-22.290077,-0.000135,0.006008,0.111252,0.201314,159,c
26:42.2,19.557251,-8.748092,-40.145039,-0.055748,0.019782,0.095746,0.199343,159,c
26:42.4,0.770992,6.145038,-3.541985,-0.054476,0.031771,0.083541,0.201288,159,c
26:43.1,1.610687,-39.106869,-45.38168,0.014045,0.037292,0.108438,0.72235,160,c
26:43.3,-2.618321,-51.366413,-37.633587,-0.026629,0.013991,0.100211,0.201021,160,c
26:43.5,-58.488548,-23.305344,-13.160305,-0.050579,0.003816,0.121428,0.200459,160,c
26:43.7,-57.725189,-6.664122,35.519085,-0.050227,-0.010662,0.120237,0.201168,160,c
26:43.9,-16.29771,32.549618,54.38168,-0.037779,-0.014695,0.201775,0.199911,160,c
26:44.1,38.488548,16.160305,47.473282,-0.002381,-0.014641,0.139857,0.202306,160,c
26:44.3,56.664124,1.648855,0.221374,-0.001678,0.001299,0.123159,0.199681,160,c
26:44.5,39.419846,-20.167938,-23.801527,-0.026873,0.015425,0.091551,0.20174,160,c
26:44.7,-17.641222,-9.938931,-36.893131,-0.04173,0.016102,0.091524,0.200188,160,c
26:45.7,20.625954,-33.625954,-15.839695,0.017807,0.033882,0.112226,1.022568,161,c
26:45.9,-12.351145,-13.290076,-53.923664,-0.039078,0.020621,0.090604,0.199287,161,c
26:46.1,-45.969467,-6.053435,-49.503819,-0.037021,0.007902,0.093094,0.200131,161,c
26:46.3,-69.847328,-22.87023,-1.061069,-0.053691,-0.018105,0.120913,0.200814,161,c
26:46.5,-39.351147,41.847328,41.015266,-0.014614,-0.024951,0.149464,0.201306,161,c
26:46.7,12.122137,-29.70229,80.290077,-0.033232,-0.021244,0.164835,0.202113,161,c
26:46.9,47.770992,3.389313,44.0229,-0.007307,-0.01713,0.14056,0.201221,161,c
26:47.1,64.96183,-5.129771,-3.89313,0.014181,-0.002436,0.111036,0.198158,161,c
26:47.3,6.664122,2.89313,-36.694656,-0.030337,0.023652,0.085191,0.202295,161,c
26:48.6,30.152672,-48.854961,-3.274809,0.01096,0.038103,0.13366,1.224552,162,c
26:48.8,4.312977,-32.045803,-68.633591,-0.033422,0.020757,0.067818,0.199168,162,c
26:49.0,-50.167938,-4.328244,-51.061069,-0.029606,0.012557,0.101645,0.200556,162,c
26:49.2,-44.083969,-14.587787,11.335877,-0.052582,-0.000974,0.150655,0.200429,162,c
26:49.4,-26.625954,0.396947,60.908398,-0.018186,0.003708,0.159531,0.202787,162,c
26:49.6,4.007634,-0.320611,79.312981,0.012259,-0.014181,0.172521,0.200057,162,c
26:49.8,36.839695,16.366413,41.38168,0.01529,0.001976,0.102565,0.201666,162,c
26:50.0,60.64122,-42.030533,-11.442748,0.027603,0.016941,0.12002,0.198765,162,c
26:50.2,24.32061,-9.137404,-40.290077,0.023923,0.019593,0.104378,0.202266,162,c
26:50.4,-24.396946,10.610687,-32.503819,-0.042271,0.030526,0.112253,0.199717,162,c
34:36.6,-17.717558,13.030535,-5.030534,-0.000649,0.032799,0.095773,466.193055,163,v
34:36.8,-70.030533,-36.106869,-21.32061,-0.011637,0.009255,0.071309,0.208825,163,v
34:37.0,-75.793892,20.312977,-25.549618,-0.011853,0.005845,0.158421,0.207316,163,v
34:37.2,11.175572,9.679389,-42.206108,0.01069,0.009553,0.216551,0.197031,163,v
34:37.4,89.206108,-17.557251,-60.938931,0.004655,-0.005548,0.186376,0.193616,163,v
34:37.6,93.450378,-69.786263,-3.435115,0.01096,-0.000568,0.113877,0.210646,163,v
34:38.9,-13.977099,18.893129,-28.366413,0.023598,-0.003193,0.057805,1.324063,164,v
34:39.1,-111.931297,-13.648855,2.328244,0.030201,-0.021433,0.155363,0.201502,164,v
34:39.3,-36.015266,36.221375,-36.129772,0.024843,-0.005872,0.217173,0.198705,164,v
34:39.5,56.496181,-8.961832,-44.229008,0.031554,-0.003356,0.211734,0.194754,164,v
34:39.7,102.114502,-15.534351,-52.213741,-0.028713,-0.022624,0.110711,0.194275,164,v
34:39.9,17.893129,12.557252,-18.137405,-0.012746,0.015155,0.04817,0.211456,164,v
34:41.0,-4.328244,-1.847328,-18.076336,0.02284,0.031365,0.083541,1.119404,165,v
34:41.2,-99.167938,-4.351145,-15.251908,0.007307,-0.020405,0.052825,0.206381,165,v
34:41.4,-106.114502,36.648853,-63.992367,0.007199,-0.015912,0.214873,0.202785,165,v
34:41.6,18.992367,11.351145,-19.343512,0.016968,0.000162,0.208134,0.200986,165,v
34:41.8,119.274811,4.992366,-47.824429,-0.015669,-0.027847,0.137719,0.194136,165,v
34:42.0,81.725189,-1.145038,-54.755726,-0.044923,-0.00866,0.063704,0.195086,165,v
34:43.2,-21.328245,-12.564885,7.961832,0.030282,0.01142,0.057778,1.232112,166,v
34:43.4,-116.847328,-15.458015,-22.030535,-0.005358,-0.028307,0.080861,0.201577,166,v
34:43.6,-81.190842,18.503817,-41.992367,0.000487,-0.020946,0.221692,0.198931,166,v
34:43.9,49,14.557252,-22.969465,0.04062,-0.012097,0.210218,0.204387,166,v
34:44.0,114.236641,-30.366413,-65.816795,0.026386,-0.029904,0.160018,0.197312,166,v
34:44.3,76.96183,-3.091603,-48.885498,-0.031013,-0.011528,0.059022,0.201245,166,v
34:45.5,-31.748091,2.167939,-17.404581,0.020486,0.012178,0.088845,1.21618,167,v
34:45.7,-115.610687,-3.938931,-16.549618,0.00046,-0.027387,0.082972,0.20926,167,v
34:45.9,-89.587784,20.625954,-26.213741,0.026548,-0.015858,0.221692,0.194638,167,v
34:46.1,47.732826,24.435114,-40.549618,0.029633,-0.013666,0.201125,0.208439,167,v
34:46.3,100.229004,2.648855,-75.633591,0.028767,-0.019133,0.128058,0.192905,167,v
34:46.5,55.198475,-11.80916,-60.610687,-0.030255,0.003708,0.039835,0.194106,167,v
34:47.9,1.679389,-50.862595,36.786259,0.059401,0.003085,0.059266,1.438418,168,v
34:48.1,-128.648849,7.10687,-17.816793,0.013315,-0.031879,0.084298,0.192794,168,v
34:48.3,-106.480919,5.122138,7.839694,0.021677,-0.028199,0.206024,0.209865,168,v
34:48.5,32.961834,30.480917,-29.419847,0.052744,-0.020757,0.198419,0.19278,168,v
34:48.7,106.748093,21.412214,-82.519081,0.026115,-0.036669,0.142509,0.210537,168,v
34:48.9,92.618324,-14.824428,-83.694656,-0.019593,-0.021298,0.067953,0.195865,168,v
34:49.1,23.259542,0.870229,1.137405,-0.018429,0.029741,0.072932,0.204131,168,v
34:50.4,-13.335877,15.412213,-24.473282,0.028686,0.004059,0.08189,1.312406,169,v
34:50.6,-127.564888,-10.625955,-23.778625,0.000514,-0.02349,0.112849,0.212122,169,v
34:50.8,-59.778625,12.022901,-27.366413,0.016291,-0.014668,0.221692,0.191678,169,v
34:51.0,43.687023,22.458015,-39.152672,0.053231,-0.015317,0.196335,0.209975,169,v
34:51.2,92.984734,-45.992367,-42.366413,0.021704,-0.020378,0.184915,0.193039,169,v
34:51.4,70.557251,-75.206108,-33.625954,-0.029606,0.000785,0.071227,0.210066,169,v
34:52.9,-31.51145,-18.404581,-13.793893,0.016968,0.00755,0.059726,1.417809,170,v
34:53.0,-124.748093,-9.450381,-0.824427,-0.010554,-0.030688,0.101943,0.19062,170,v
34:53.3,-63.229008,2.175573,-11.862596,0.029335,-0.020351,0.208567,0.210526,170,v
34:53.5,53.549618,25.671755,-50.045803,0.069522,-0.026981,0.188433,0.196139,170,v
34:53.7,116.633591,76.206108,-132.328247,0.014938,-0.033124,0.129167,0.207753,170,v
34:53.9,53.267174,11.496183,-43.503819,-0.02598,0.005818,0.067033,0.19402,170,v
34:55.1,-30.389313,-8.770992,2.984733,0.02008,0.009363,0.070551,1.225658,171,v
34:55.3,-112.862595,-10.305344,15.351145,-0.00755,-0.018862,0.076937,0.198735,171,v
34:55.5,-84.511452,23.290077,-4.435114,0.048143,-0.01575,0.204346,0.211037,171,v
34:55.7,25.595419,49.198475,-72.068703,0.057047,-0.015696,0.194333,0.200672,171,v
34:55.9,141.549622,1.381679,-119.290077,0.00249,-0.031284,0.187973,0.200612,171,v
34:56.1,139.603058,-37.335876,-55.106869,-0.055504,-0.000704,0.010554,0.198382,171,v
34:57.4,-80.549622,72.061066,-68.519081,0.003139,-0.004005,0.087898,1.323034,172,v
34:57.6,-139.274811,-57.70229,23.51145,0.010527,-0.029119,0.161425,0.203638,172,v
34:57.8,-10.40458,10.419847,-26.954199,0.021271,-0.013098,0.20421,0.200818,172,v
34:58.0,113.580154,18.977098,-61.572517,0.019891,-0.018375,0.202478,0.200671,172,v
34:58.2,212.343506,17.251909,-92.28244,-0.003897,-0.037752,0.095421,0.188577,172,v
34:59.3,-27.29771,-27.274809,22.923664,0.018538,0.026413,0.036317,1.127228,173,v
34:59.5,-141.92366,-8.801527,-24.763359,0.013342,-0.014451,0.046276,0.19565,173,v
34:59.7,-130.916031,35.717556,-15.870229,0.033205,-0.034017,0.221692,0.210641,173,v
34:59.9,68.877861,1.389313,-27.839695,0.02579,-0.027414,0.205915,0.194567,173,v
35:00.1,204.35878,23.076336,-134.618317,0.020215,-0.039808,0.148435,0.212048,173,v
35:00.3,96.374046,5.290076,1.534351,-0.035154,0.022624,0.006738,0.195472,173,v
35:01.4,-30.603054,23.633587,-3.839695,0.008254,0.035722,0.014559,1.014037,174,v
35:01.6,-207.969467,44.29771,0.480916,0.029011,-0.035154,0.125352,0.21144,174,v
35:01.8,-76.778625,36.519085,-35.526718,0.021433,-0.030959,0.212167,0.19322,174,v
35:02.0,41.664124,-3.114504,-40.145039,0.03399,-0.022434,0.181532,0.209915,174,v
35:02.2,181.259537,-0.969466,-116.618324,0.013477,-0.042893,0.191491,0.195496,174,v
35:02.4,120.290077,-35.534351,-3.145038,-0.027008,0.019755,0.037264,0.19373,174,v
35:03.3,-37.503819,-5.053435,28.38168,0.004925,0.025574,0.047386,0.935513,175,v
35:03.5,-136.480911,4.801527,2.175573,0.032691,-0.015831,0.119181,0.192967,175,v
35:03.7,-84.71756,6.358778,-11.458015,0.010067,-0.005061,0.183237,0.195526,175,v
35:03.9,17.229008,-4.91603,-30.770992,0.048089,-0.000758,0.200313,0.209606,175,v
35:04.1,112.389313,-18.045801,-72.190842,0.017996,-0.020405,0.165485,0.194297,175,v
35:04.3,100.404579,-26.587786,-33.824429,-0.009661,0.003085,0.057372,0.210295,175,v
35:05.5,-56.427483,-10,-2.045802,0.031094,0.005954,0.07323,1.22458,176,v
35:05.7,-125.839691,-40.961834,20.977098,0.035641,-0.024599,0.109466,0.199907,176,v
35:05.9,-60.38168,33.488548,-36.480915,0.033963,-0.009147,0.211355,0.18932,176,v
35:06.1,79.610687,16.603054,-49.282444,0.034504,-0.012232,0.193846,0.20952,176,v
35:06.3,119.847328,1.328244,-67.801529,0.005683,-0.013098,0.133903,0.205856,176,v
35:07.5,-32.328243,-12.862596,4.167939,0.031392,0.01372,0.048008,1.214012,177,v
35:07.8,-98.496185,6.526718,-9.526717,0.012503,-0.014343,0.086653,0.209493,177,v
35:07.9,-76.28244,20.847328,-17.862595,0.023815,-0.015019,0.18846,0.193743,177,v
35:08.1,25.51145,13.80916,-30.312977,0.027441,-0.010662,0.187053,0.193431,177,v
35:08.4,99.427483,-41.419846,-48.030533,0.029065,-0.011961,0.159152,0.21277,177,v
35:08.6,102.625954,-16.32061,-71.28244,0.002706,-0.004655,0.080212,0.200177,177,v
35:09.7,-3.274809,28.61832,-15.175572,0.031013,0.040593,0.094122,1.123037,178,v
35:09.9,-79.809158,29.778625,-23.366413,0.05085,-0.009851,0.060646,0.193256,178,v
35:10.1,-118.236641,-21.793894,23.259542,0.027603,-0.005385,0.189705,0.210527,178,v
35:10.3,-11.977099,-3.229008,-10.198473,0.051039,0.000893,0.194685,0.198086,178,v
35:10.5,79.763359,23.580153,-82.702293,0.036236,-0.008092,0.160938,0.190705,178,v
35:10.7,110.618324,-37.923664,-93,0.006333,-0.005277,0.097126,0.209897,178,v
35:12.0,-37.748093,2.503817,-7.541985,0.043002,0.00617,0.06936,1.321893,179,v
35:12.2,-107.526718,-10.030535,25.877863,0.022895,-0.013991,0.126217,0.194097,179,v
35:12.4,-52.725189,20.12977,-15.511451,0.070957,-0.001651,0.200043,0.208546,179,v
35:12.6,37.29771,4.854962,-44.572517,0.059699,-0.00276,0.169409,0.194075,179,v
35:12.8,99.35878,-16.335878,-96.328247,0.025114,-0.019864,0.121428,0.210187,179,v
35:13.0,64.633591,36.862595,-64.213737,-0.017374,0.011907,0.077695,0.197673,179,v
35:14.1,-11.679389,-16.732824,10.198473,0.053015,0.01732,0.083459,1.128191,180,v
35:14.3,-82.770996,-7.167939,11.526717,0.004059,-0.008443,0.081349,0.194268,180,v
35:14.5,-83.977097,18.465649,-1.923664,0.038942,-0.009688,0.15945,0.196269,180,v
35:14.7,-5.946565,15.954199,-17.374046,0.068034,-0.007415,0.176147,0.208088,180,v
35:14.9,66.862595,12.732824,-68.374046,0.068765,-0.014153,0.173414,0.193174,180,v
35:15.1,89.32061,-33.770992,-99.145035,0.019782,-0.007388,0.115284,0.207987,180,v
35:15.3,41.32061,-0.251908,-32.198475,-0.029849,0.02257,0.061999,0.198336,180,v
35:16.5,-8.847328,-2.129771,-5.29771,0.045924,0.020459,0.076775,1.129213,181,v
35:16.7,-44.038166,40.206108,-44.290077,-0.005927,-0.004438,0.067601,0.191168,181,v
35:16.9,-128.038162,17.541985,9.503817,0.058292,-0.015236,0.180396,0.210544,181,v
35:17.1,-0.671756,10.839695,-27.793894,0.06024,-0.003708,0.205293,0.199929,181,v
35:17.3,91.900764,5.442748,-66.824425,0.040322,-0.016535,0.159287,0.18901,181,v
35:17.5,85.748093,24.51145,-34.832062,-0.017888,0.003166,0.104676,0.210231,181,v
35:18.6,-5.427481,-10.229008,-3.656489,0.035343,0.010744,0.08511,1.117507,182,v
35:18.8,-86.236641,-16.610687,10.358779,0.003193,-0.015804,0.076937,0.20821,182,v
35:19.0,-104.099236,19.282442,-8.083969,0.053015,-0.020567,0.183562,0.193411,182,v
35:19.2,23.80916,54.328243,-51.068703,0.019674,-0.013396,0.176147,0.201021,182,v
35:19.4,95.748093,-30.099237,-38.603054,0.019701,-0.014884,0.157366,0.202842,182,v
35:19.6,104.572517,-28.267176,-69.564888,-0.038374,-0.00774,0.074718,0.199217,182,v
35:20.7,2.671756,10.312977,-9.488549,0.017807,0.010662,0.084028,1.1257,183,v
35:20.9,-92.412216,29.160305,-8.221375,0.008849,-0.01759,0.087086,0.193451,183,v
35:21.1,-76.71756,26.51145,-8.328244,0.037508,-0.021568,0.191383,0.211034,183,v
35:21.3,29.923664,18.793894,-40.106869,0.048955,-0.015101,0.196741,0.195764,183,v
35:21.5,92.419846,-5.580153,-67.740456,0.031473,-0.019728,0.139911,0.193235,183,v
35:21.7,98.809158,-17.389313,-38.274811,-0.01115,-0.000974,0.054692,0.215135,183,v
35:22.9,-56.404579,-6.748092,-22.969465,0.007929,-0.002381,0.049064,1.211731,184,v
35:23.1,-124.122139,9.511451,-10.679389,0.021,-0.029281,0.138287,0.210206,184,v
35:23.3,-9.183207,15.679389,-34.114502,0.055613,-0.003978,0.221692,0.203411,184,v
35:23.5,97.702293,-1.083969,-78.854965,0.029146,-0.030039,0.161804,0.198568,184,v
35:23.7,95.908394,13.091603,-77.450378,-0.023571,-0.010257,0.118045,0.193314,184,v
35:23.9,20.015266,18.51145,10,0.003653,0.02441,0.051743,0.199875,184,v
35:25.2,-56.557251,-18.526718,14.59542,0.048712,-0.013206,0.066952,1.221301,185,v
35:25.4,-117.541985,23.480917,17.526718,0.0164,-0.040404,0.144078,0.212242,185,v
35:25.6,-16.442749,27.114504,-36.183205,0.06254,-0.022732,0.202397,0.18806,185,v
35:25.8,86.267174,11.877863,-81.702293,0.036642,-0.027928,0.169869,0.208293,185,v
35:26.0,141.038162,60.435116,-87.450378,-0.015398,-0.037779,0.111523,0.197942,185,v
35:27.1,9.541985,-10.977099,0.335878,0.04062,0.030093,0.114067,1.127466,186,v
35:27.3,-48.450382,-14.572519,-1.335878,0.012205,-0.004303,0.032339,0.197473,186,v
35:27.5,-115.404579,-17.648855,27.557251,0.033801,-0.020215,0.154606,0.206322,186,v
35:27.7,-14.541985,18.335878,-22.87023,0.046899,-0.006008,0.194197,0.193458,186,v
35:27.9,97.946564,25.862595,-75.290077,0.042975,-0.019133,0.176769,0.208985,186,v
35:28.1,102.801529,-15.564885,-58.35878,0.00368,0.001759,0.105461,0.194209,186,v
35:29.3,-32.435116,-3.679389,20.763359,0.007307,0.013342,0.089792,1.232731,187,v
35:29.5,-105.412216,2.145038,-13.679389,-0.013071,-0.01529,0.109006,0.19874,187,v
35:29.7,-83.931297,18.946566,-31.564886,0.025628,-0.020053,0.188812,0.200501,187,v
35:29.9,13.259542,26.786259,-43.839695,0.009309,-0.015967,0.18984,0.200276,187,v
35:30.1,114.473282,34.236641,-54.175571,0.001651,-0.020297,0.156743,0.20083,187,v
35:30.3,83.511452,-9.893129,-23.580153,-0.014532,-0.002219,0.101889,0.201021,187,v
35:31.5,-35.488548,14.038168,5.251908,0.024275,-0.001353,0.062622,1.223312,188,v
35:31.7,-99.305344,13.938931,-2.557252,0.001028,-0.020973,0.125054,0.190156,188,v
35:31.9,-32.229008,41.34351,-24.87023,0.032556,-0.016995,0.198473,0.20968,188,v
35:32.1,41.076336,1.633588,-27.641222,0.021596,-0.017211,0.198446,0.19421,188,v
35:32.4,103.465652,-9.083969,-52.152672,0.011853,-0.018592,0.159179,0.209014,188,v
35:32.5,130.519089,-9.534351,-20.404581,-0.03694,0.002923,0.053231,0.193104,188,v
35:33.6,-17.221375,-15.297709,21.427481,0.03196,0.011853,0.054449,1.030029,189,v
35:33.8,-97.343513,-11.068703,-8.40458,0.013342,-0.009201,0.09921,0.193372,189,v
35:34.0,-80.152672,-4.137404,-4.519084,0.041161,-0.011745,0.187053,0.209689,189,v
35:34.2,23.984734,16.977098,-42.374046,0.05637,-0.006928,0.184428,0.193006,189,v
35:34.4,71.061066,-28,-89.923668,0.057669,-0.010771,0.153388,0.206858,189,v
35:34.6,83.770996,71.946564,-113.671753,-0.043408,-0.001028,0.089819,0.190103,189,v
35:35.7,-1.961832,-37.603054,25.778625,0.031771,0.006333,0.087059,1.135647,190,v
35:35.9,-86.870232,21.458015,-1.770992,0.022434,-0.010121,0.104703,0.186559,190,v
35:36.1,-70.664124,32.190838,-13.282443,0.046087,-0.009445,0.18229,0.215534,190,v
35:36.3,-1.480916,54.450382,-56.145039,0.051445,-0.008606,0.184401,0.187577,190,v
35:36.5,60.068703,-7.91603,-106.770996,0.029416,-0.017374,0.150167,0.209528,190,v
35:36.7,106.458015,-8.328244,-23.641222,-0.006522,-0.012205,0.097965,0.196835,190,v
35:37.8,-31.648855,-23.175573,3.320611,0.037535,0.00184,0.053637,1.125366,191,v
35:38.0,-105.541985,27.526718,-13.282443,0.036831,-0.013748,0.156202,0.193743,191,v
35:38.2,-40.114502,18.32061,-25.496183,0.041649,-0.001948,0.179422,0.209693,191,v
35:38.4,48.900764,49.427483,-77,0.036507,-0.007009,0.162372,0.193398,191,v
35:38.6,98.091606,11.152672,-63.419846,0.01437,-0.007713,0.143673,0.210074,191,v
35:38.8,67.916031,2.923664,-22.007633,-0.017103,0.011556,0.06089,0.193525,191,v
36:36.9,-4.21374,37.9771,-6.694656,-0.015128,0.045085,0.13642,58.106469,192,v
36:37.1,13.572519,-30.068703,4.442748,-0.036804,0.040268,0.087843,0.209864,192,v
36:37.3,-109.610687,-4.748092,-47.503819,0.006278,-0.024221,0.011068,0.193753,192,v
36:37.5,-164.992371,20.458015,-40.931297,0.008687,-0.08262,0.221692,0.209544,192,v
36:37.7,78.992363,0.625954,-74.419846,-0.032447,-0.046655,0.221692,0.193396,192,v
36:37.9,229.969467,35.854961,-37.809162,-0.022326,-0.071633,0.131738,0.210524,192,v
36:38.1,1.900763,-6.022901,-2.091603,-0.03924,0.02073,0.03031,0.198843,192,v
36:39.3,23.404581,-0.862595,-32.526718,0.011204,0.048279,0.093527,1.122553,193,v
36:39.5,-110.175575,14.977099,-77.045799,0.00276,-0.008037,0.027576,0.191897,193,v
36:39.7,-150.977097,47.198475,-61.969467,-0.097478,-0.053069,0.221692,0.209035,193,v
36:39.9,-24.351145,15.083969,-14.236641,-0.014884,-0.028956,0.221692,0.19261,193,v
36:40.1,102.694656,2.801527,-36.076336,-0.001515,-0.040485,0.17888,0.210806,193,v
36:40.3,137.412216,21.19084,-39.076336,-0.021785,-0.025574,0.127598,0.1934,193,v
36:40.5,37.755726,-18.274809,-14.274809,-0.077776,0.019025,0.024166,0.193124,193,v
36:42.1,42.122139,25.862595,5.778626,0.013287,0.063515,0.093202,1.631687,194,v
36:42.3,-18.717558,-23.351145,-14.893129,0.012016,0.040728,0.053393,0.208694,194,v
36:42.5,-111.015266,-52.129772,-43.984734,-0.010852,-0.012963,0.033611,0.197415,194,v
36:42.7,-210.671753,15.900764,-72.244278,-0.032772,-0.08262,0.176905,0.205141,194,v
36:42.9,-14.496183,32.778625,0.847328,-0.009309,-0.052744,0.221692,0.194024,194,v
36:43.1,52.908398,29.885496,-43.152672,0.013666,-0.065111,0.170302,0.2093,194,v
36:43.3,176.389313,-13.816793,-67.267174,-0.017753,-0.070172,0.201883,0.194483,194,v
36:43.5,175.534348,-8.282443,-64.099236,-0.068359,-0.044111,0.030472,0.193173,194,v
36:43.7,-9.679389,19.67939,5.160306,-0.002679,0.065247,0.034396,0.210383,194,v
36:44.8,49.328243,-13.427481,-3.916031,0.012584,0.047196,0.08281,1.117265,195,v
36:45.0,-19.664122,-4.305344,-11.396947,0.013802,0.048062,0.078345,0.208281,195,v
36:45.2,-66.114502,44.34351,-16.335878,-0.031933,0.016806,0.007604,0.193993,195,v
36:45.4,-250.129776,63.183205,-42.893131,-0.073013,-0.113309,0.131684,0.206747,195,v
36:45.6,-23.312977,24.534351,-25.396946,-0.040755,-0.040322,0.191816,0.200328,195,v
36:45.8,113.167938,28.061069,-63.038166,0.016481,-0.064868,0.221692,0.203208,195,v
36:46.0,229.671753,6.877862,-86.854965,-0.014072,-0.077506,0.115447,0.198192,195,v
36:46.2,75.083969,-83.335876,-15.030535,-0.081646,0.004682,-0.003491,0.193382,195,v
36:47.8,30.389313,-40.603054,-22.206106,0.023706,0.048198,0.147136,1.528693,196,v
36:48.0,4.687023,-17.641222,-5.839694,0.023003,0.057669,0.085841,0.20766,196,v
36:48.2,-20.465649,0.282443,-25.053434,0.020648,0.022137,0.04154,0.200454,196,v
36:48.4,-236.122131,23.045801,-27.625954,-0.015236,-0.069144,0.02579,0.200149,196,v
36:48.6,-69.419846,91.893127,-61.65649,-0.054665,-0.047115,0.221692,0.198265,196,v
36:48.8,34.717556,57.961834,-73.122139,0.050119,-0.050498,0.204562,0.194219,196,v
36:49.0,243.045807,-19.900763,-100.870232,-0.00322,-0.088276,0.209893,0.211794,196,v
